Rel_Time,System_Time,S6_EMG_1,S6_ACC_X,S6_ACC_Y,S6_ACC_Z,S6_GYRO_X,S6_GYRO_Y,S6_GYRO_Z
0.000000,18:23:17.922,1.214389,-0.001587,0.068481,0.952881,3.381679,18.923664,0.763359
0.000794,18:23:17.923,1.163699,-0.001587,0.068481,0.952881,3.381679,18.923664,0.763359
0.001588,18:23:17.923,1.083467,-0.001587,0.068481,0.952881,3.381679,18.923664,0.763359
0.002382,18:23:17.924,0.996521,-0.001587,0.068481,0.952881,3.381679,18.923664,0.763359
0.003176,18:23:17.925,0.881880,-0.001587,0.068481,0.952881,3.381679,18.923664,0.763359
0.003971,18:23:17.926,0.702785,-0.001587,0.068481,0.952881,3.381679,18.923664,0.763359
0.004765,18:23:17.927,0.488609,-0.001587,0.068481,0.952881,3.381679,18.923664,0.763359
0.005559,18:23:17.927,0.281483,-0.001587,0.068481,0.952881,3.381679,18.923664,0.763359
0.006353,18:23:17.928,0.075196,-0.001587,0.068481,0.952881,3.381679,18.923664,0.763359
0.007147,18:23:17.929,-0.184802,-0.003235,0.070740,0.953125,5.343512,18.114504,0.633588
0.007941,18:23:17.930,-0.480385,-0.003235,0.070740,0.953125,5.343512,18.114504,0.633588
0.008735,18:23:17.931,-0.726955,-0.003235,0.070740,0.953125,5.343512,18.114504,0.633588
0.009529,18:23:17.931,-0.901518,-0.003235,0.070740,0.953125,5.343512,18.114504,0.633588
0.010324,18:23:17.932,-1.037140,-0.003235,0.070740,0.953125,5.343512,18.114504,0.633588
0.011118,18:23:17.933,-1.140200,-0.003235,0.070740,0.953125,5.343512,18.114504,0.633588
0.011912,18:23:17.934,-1.188540,-0.003235,0.070740,0.953125,5.343512,18.114504,0.633588
0.012706,18:23:17.935,-1.177798,-0.003235,0.070740,0.953125,5.343512,18.114504,0.633588
0.013500,18:23:17.935,-0.102220,-0.007935,0.076233,0.956299,6.450382,17.740458,0.503817
0.014294,18:23:17.936,0.013931,-0.007935,0.076233,0.956299,6.450382,17.740458,0.503817
0.015088,18:23:17.937,0.173724,-0.007935,0.076233,0.956299,6.450382,17.740458,0.503817
0.015882,18:23:17.938,0.381186,-0.007935,0.076233,0.956299,6.450382,17.740458,0.503817
0.016676,18:23:17.939,0.568505,-0.007935,0.076233,0.956299,6.450382,17.740458,0.503817
0.017471,18:23:17.939,0.692042,-0.007935,0.076233,0.956299,6.450382,17.740458,0.503817
0.018265,18:23:17.940,0.777981,-0.007935,0.076233,0.956299,6.450382,17.740458,0.503817
0.019059,18:23:17.941,0.844785,-0.007935,0.076233,0.956299,6.450382,17.740458,0.503817
0.019853,18:23:17.942,0.892119,-0.007935,0.076233,0.956299,6.450382,17.740458,0.503817
0.020647,18:23:17.943,0.940459,-0.001709,0.077942,0.954956,8.320611,16.961832,0.404580
0.021441,18:23:17.943,1.020020,-0.001709,0.077942,0.954956,8.320611,16.961832,0.404580
0.022235,18:23:17.944,1.102937,-0.001709,0.077942,0.954956,8.320611,16.961832,0.404580
0.023029,18:23:17.945,1.136172,-0.001709,0.077942,0.954956,8.320611,16.961832,0.404580
0.023824,18:23:17.946,1.111330,-0.001709,0.077942,0.954956,8.320611,16.961832,0.404580
0.024618,18:23:17.947,1.039826,-0.001709,0.077942,0.954956,8.320611,16.961832,0.404580
0.025412,18:23:17.947,0.947173,-0.001709,0.077942,0.954956,8.320611,16.961832,0.404580
0.026206,18:23:17.948,0.846128,-0.001709,0.077942,0.954956,8.320611,16.961832,0.404580
0.027000,18:23:17.949,-1.104448,-0.000366,0.084961,0.948059,9.496183,16.877863,0.549618
0.027794,18:23:17.950,-1.179141,-0.000366,0.084961,0.948059,9.496183,16.877863,0.549618
0.028588,18:23:17.950,-1.190219,-0.000366,0.084961,0.948059,9.496183,16.877863,0.549618
0.029382,18:23:17.951,-1.157656,-0.000366,0.084961,0.948059,9.496183,16.877863,0.549618
0.030176,18:23:17.952,-1.102937,-0.000366,0.084961,0.948059,9.496183,16.877863,0.549618
0.030971,18:23:17.953,-1.030091,-0.000366,0.084961,0.948059,9.496183,16.877863,0.549618
0.031765,18:23:17.954,-0.946334,-0.000366,0.084961,0.948059,9.496183,16.877863,0.549618
0.032559,18:23:17.954,-0.854353,-0.000366,0.084961,0.948059,9.496183,16.877863,0.549618
0.033353,18:23:17.955,-0.736019,-0.000366,0.084961,0.948059,9.496183,16.877863,0.549618
0.034147,18:23:17.956,-0.588983,0.004456,0.090637,0.940369,9.549619,16.572519,0.595420
0.034941,18:23:17.957,-0.415259,0.004456,0.090637,0.940369,9.549619,16.572519,0.595420
0.035735,18:23:17.958,-0.233814,0.004456,0.090637,0.940369,9.549619,16.572519,0.595420
0.036529,18:23:17.958,-0.078386,0.004456,0.090637,0.940369,9.549619,16.572519,0.595420
0.037324,18:23:17.959,-0.078386,0.004456,0.090637,0.940369,9.549619,16.572519,0.595420
0.038118,18:23:17.960,0.172381,0.004456,0.090637,0.940369,9.549619,16.572519,0.595420
0.038912,18:23:17.961,0.172381,0.004456,0.090637,0.940369,9.549619,16.572519,0.595420
0.039706,18:23:17.962,0.564813,0.004456,0.090637,0.940369,9.549619,16.572519,0.595420
0.040500,18:23:17.962,1.098741,0.004456,0.090637,0.940369,9.549619,16.572519,0.595420
0.041294,18:23:17.963,1.000549,0.006165,0.092041,0.939209,8.503817,16.282442,0.564885
0.042088,18:23:17.964,0.892790,0.006165,0.092041,0.939209,8.503817,16.282442,0.564885
0.042882,18:23:17.965,0.766064,0.006165,0.092041,0.939209,8.503817,16.282442,0.564885
0.043676,18:23:17.966,0.594354,0.006165,0.092041,0.939209,8.503817,16.282442,0.564885
0.044471,18:23:17.966,0.385885,0.006165,0.092041,0.939209,8.503817,16.282442,0.564885
0.045265,18:23:17.967,0.175738,0.006165,0.092041,0.939209,8.503817,16.282442,0.564885
0.046059,18:23:17.968,-0.039780,0.006165,0.092041,0.939209,8.503817,16.282442,0.564885
0.046853,18:23:17.969,-0.308675,0.006165,0.092041,0.939209,8.503817,16.282442,0.564885
0.047647,18:23:17.970,-0.609293,0.006836,0.093018,0.935364,6.030534,17.282442,0.633588
0.048441,18:23:17.970,-0.849149,0.006836,0.093018,0.935364,6.030534,17.282442,0.633588
0.049235,18:23:17.971,-1.015320,0.006836,0.093018,0.935364,6.030534,17.282442,0.633588
0.050029,18:23:17.972,-1.151949,0.006836,0.093018,0.935364,6.030534,17.282442,0.633588
0.050824,18:23:17.973,-1.259709,0.006836,0.093018,0.935364,6.030534,17.282442,0.633588
0.051618,18:23:17.974,-1.310735,0.006836,0.093018,0.935364,6.030534,17.282442,0.633588
0.052412,18:23:17.974,-1.300832,0.006836,0.093018,0.935364,6.030534,17.282442,0.633588
0.053206,18:23:17.975,-1.265919,0.006836,0.093018,0.935364,6.030534,17.282442,0.633588
0.054000,18:23:17.976,0.040116,0.003479,0.090149,0.935791,2.893130,18.854961,0.885496
0.054794,18:23:17.977,0.196887,0.003479,0.090149,0.935791,2.893130,18.854961,0.885496
0.055588,18:23:17.977,0.407706,0.003479,0.090149,0.935791,2.893130,18.854961,0.885496
0.056382,18:23:17.978,0.608789,0.003479,0.090149,0.935791,2.893130,18.854961,0.885496
0.057176,18:23:17.979,0.753140,0.003479,0.090149,0.935791,2.893130,18.854961,0.885496
0.057971,18:23:17.980,0.855192,0.003479,0.090149,0.935791,2.893130,18.854961,0.885496
0.058765,18:23:17.981,0.935760,0.003479,0.090149,0.935791,2.893130,18.854961,0.885496
0.059559,18:23:17.981,0.998199,0.003479,0.090149,0.935791,2.893130,18.854961,0.885496
0.060353,18:23:17.982,1.053254,0.003479,0.090149,0.935791,2.893130,18.854961,0.885496
0.061147,18:23:17.983,1.134493,0.002075,0.089600,0.937683,-0.297710,20.030535,0.900763
0.061941,18:23:17.984,1.224125,0.002075,0.089600,0.937683,-0.297710,20.030535,0.900763
0.062735,18:23:17.985,1.265080,0.002075,0.089600,0.937683,-0.297710,20.030535,0.900763
0.063529,18:23:17.985,1.244602,0.002075,0.089600,0.937683,-0.297710,20.030535,0.900763
0.064324,18:23:17.986,1.175952,0.002075,0.089600,0.937683,-0.297710,20.030535,0.900763
0.065118,18:23:17.987,1.079942,0.002075,0.089600,0.937683,-0.297710,20.030535,0.900763
0.065912,18:23:17.988,0.972015,0.002075,0.089600,0.937683,-0.297710,20.030535,0.900763
0.066706,18:23:17.989,0.832364,0.002075,0.089600,0.937683,-0.297710,20.030535,0.900763
0.067500,18:23:17.989,0.000000,0.002075,0.089600,0.937683,-0.297710,20.030535,0.900763
0.068294,18:23:17.990,0.000000,-0.005554,0.086182,0.941711,-2.709924,20.160305,0.954198
0.069088,18:23:17.991,0.000000,-0.005554,0.086182,0.941711,-2.709924,20.160305,0.954198
0.069882,18:23:17.992,0.000000,-0.005554,0.086182,0.941711,-2.709924,20.160305,0.954198
0.070676,18:23:17.993,0.000000,-0.005554,0.086182,0.941711,-2.709924,20.160305,0.954198
0.071471,18:23:17.993,0.000000,-0.005554,0.086182,0.941711,-2.709924,20.160305,0.954198
0.072265,18:23:17.994,0.000000,-0.005554,0.086182,0.941711,-2.709924,20.160305,0.954198
0.073059,18:23:17.995,0.000000,-0.005554,0.086182,0.941711,-2.709924,20.160305,0.954198
0.073853,18:23:17.996,0.000000,-0.005554,0.086182,0.941711,-2.709924,20.160305,0.954198
0.074647,18:23:17.997,0.000000,-0.006531,0.076599,0.951904,-3.442748,19.786259,0.793893
0.075441,18:23:17.997,0.000000,-0.006531,0.076599,0.951904,-3.442748,19.786259,0.793893
0.076235,18:23:17.998,0.000000,-0.006531,0.076599,0.951904,-3.442748,19.786259,0.793893
0.077029,18:23:17.999,0.000000,-0.006531,0.076599,0.951904,-3.442748,19.786259,0.793893
0.077824,18:23:18.000,0.000000,-0.006531,0.076599,0.951904,-3.442748,19.786259,0.793893
0.078618,18:23:18.001,0.000000,-0.006531,0.076599,0.951904,-3.442748,19.786259,0.793893
0.079412,18:23:18.001,0.000000,-0.006531,0.076599,0.951904,-3.442748,19.786259,0.793893
0.080206,18:23:18.002,0.000000,-0.006531,0.076599,0.951904,-3.442748,19.786259,0.793893
0.081000,18:23:18.003,0.000000,-0.006531,0.076599,0.951904,-3.442748,19.786259,0.793893
0.081794,18:23:18.004,0.000000,-0.009460,0.071472,0.957397,-2.351145,19.511450,0.969466
0.082588,18:23:18.004,0.000000,-0.009460,0.071472,0.957397,-2.351145,19.511450,0.969466
0.083382,18:23:18.005,0.000000,-0.009460,0.071472,0.957397,-2.351145,19.511450,0.969466
0.084176,18:23:18.006,0.000000,-0.009460,0.071472,0.957397,-2.351145,19.511450,0.969466
0.084971,18:23:18.007,0.000000,-0.009460,0.071472,0.957397,-2.351145,19.511450,0.969466
0.085765,18:23:18.008,0.000000,-0.009460,0.071472,0.957397,-2.351145,19.511450,0.969466
0.086559,18:23:18.008,0.000000,-0.009460,0.071472,0.957397,-2.351145,19.511450,0.969466
0.087353,18:23:18.009,0.000000,-0.009460,0.071472,0.957397,-2.351145,19.511450,0.969466
0.088147,18:23:18.010,0.000000,-0.008484,0.069153,0.956360,0.549618,18.816793,0.877863
0.088941,18:23:18.011,0.000000,-0.008484,0.069153,0.956360,0.549618,18.816793,0.877863
0.089735,18:23:18.012,0.000000,-0.008484,0.069153,0.956360,0.549618,18.816793,0.877863
0.090529,18:23:18.012,0.000000,-0.008484,0.069153,0.956360,0.549618,18.816793,0.877863
0.091324,18:23:18.013,0.000000,-0.008484,0.069153,0.956360,0.549618,18.816793,0.877863
0.092118,18:23:18.014,0.000000,-0.008484,0.069153,0.956360,0.549618,18.816793,0.877863
0.092912,18:23:18.015,0.000000,-0.008484,0.069153,0.956360,0.549618,18.816793,0.877863
0.093706,18:23:18.016,0.000000,-0.008484,0.069153,0.956360,0.549618,18.816793,0.877863
0.094500,18:23:18.016,0.000000,-0.008484,0.069153,0.956360,0.549618,18.816793,0.877863
0.095294,18:23:18.017,0.000000,-0.003479,0.068542,0.957275,4.099236,17.511450,0.992366
0.096088,18:23:18.018,0.000000,-0.003479,0.068542,0.957275,4.099236,17.511450,0.992366
0.096882,18:23:18.019,0.000000,-0.003479,0.068542,0.957275,4.099236,17.511450,0.992366
0.097676,18:23:18.020,0.000000,-0.003479,0.068542,0.957275,4.099236,17.511450,0.992366
0.098471,18:23:18.020,0.000000,-0.003479,0.068542,0.957275,4.099236,17.511450,0.992366
0.099265,18:23:18.021,0.000000,-0.003479,0.068542,0.957275,4.099236,17.511450,0.992366
0.100059,18:23:18.022,0.000000,-0.003479,0.068542,0.957275,4.099236,17.511450,0.992366
0.100853,18:23:18.023,0.000000,-0.003479,0.068542,0.957275,4.099236,17.511450,0.992366
0.101647,18:23:18.024,0.000000,0.000061,0.073914,0.957703,7.343512,16.664122,0.595420
0.102441,18:23:18.024,0.000000,0.000061,0.073914,0.957703,7.343512,16.664122,0.595420
0.103235,18:23:18.025,0.000000,0.000061,0.073914,0.957703,7.343512,16.664122,0.595420
0.104029,18:23:18.026,0.000000,0.000061,0.073914,0.957703,7.343512,16.664122,0.595420
0.104824,18:23:18.027,0.000000,0.000061,0.073914,0.957703,7.343512,16.664122,0.595420
0.105618,18:23:18.028,0.000000,0.000061,0.073914,0.957703,7.343512,16.664122,0.595420
0.106412,18:23:18.028,0.000000,0.000061,0.073914,0.957703,7.343512,16.664122,0.595420
0.107206,18:23:18.029,0.000000,0.000061,0.073914,0.957703,7.343512,16.664122,0.595420
0.108000,18:23:18.030,0.000000,0.002258,0.072021,0.955811,8.526717,16.297710,0.549618
0.108794,18:23:18.031,0.000000,0.002258,0.072021,0.955811,8.526717,16.297710,0.549618
0.109588,18:23:18.031,0.000000,0.002258,0.072021,0.955811,8.526717,16.297710,0.549618
0.110382,18:23:18.032,0.000000,0.002258,0.072021,0.955811,8.526717,16.297710,0.549618
0.111176,18:23:18.033,0.000000,0.002258,0.072021,0.955811,8.526717,16.297710,0.549618
0.111971,18:23:18.034,0.000000,0.002258,0.072021,0.955811,8.526717,16.297710,0.549618
0.112765,18:23:18.035,0.000000,0.002258,0.072021,0.955811,8.526717,16.297710,0.549618
0.113559,18:23:18.035,0.000000,0.002258,0.072021,0.955811,8.526717,16.297710,0.549618
0.114353,18:23:18.036,0.000000,0.002258,0.072021,0.955811,8.526717,16.297710,0.549618
0.115147,18:23:18.037,0.000000,0.003723,0.076355,0.951599,10.236641,16.725191,0.206107
0.115941,18:23:18.038,0.000000,0.003723,0.076355,0.951599,10.236641,16.725191,0.206107
0.116735,18:23:18.039,0.000000,0.003723,0.076355,0.951599,10.236641,16.725191,0.206107
0.117529,18:23:18.039,0.000000,0.003723,0.076355,0.951599,10.236641,16.725191,0.206107
0.118324,18:23:18.040,0.000000,0.003723,0.076355,0.951599,10.236641,16.725191,0.206107
0.119118,18:23:18.041,0.000000,0.003723,0.076355,0.951599,10.236641,16.725191,0.206107
0.119912,18:23:18.042,0.000000,0.003723,0.076355,0.951599,10.236641,16.725191,0.206107
0.120706,18:23:18.043,0.000000,0.003723,0.076355,0.951599,10.236641,16.725191,0.206107
0.121500,18:23:18.043,0.000000,0.002136,0.083923,0.946167,10.358779,17.381680,0.213740
0.122294,18:23:18.044,0.000000,0.002136,0.083923,0.946167,10.358779,17.381680,0.213740
0.123088,18:23:18.045,0.000000,0.002136,0.083923,0.946167,10.358779,17.381680,0.213740
0.123882,18:23:18.046,0.000000,0.002136,0.083923,0.946167,10.358779,17.381680,0.213740
0.124676,18:23:18.047,0.000000,0.002136,0.083923,0.946167,10.358779,17.381680,0.213740
0.125471,18:23:18.047,0.000000,0.002136,0.083923,0.946167,10.358779,17.381680,0.213740
0.126265,18:23:18.048,0.000000,0.002136,0.083923,0.946167,10.358779,17.381680,0.213740
0.127059,18:23:18.049,0.000000,0.002136,0.083923,0.946167,10.358779,17.381680,0.213740
0.127853,18:23:18.050,0.000000,0.002136,0.083923,0.946167,10.358779,17.381680,0.213740
0.128647,18:23:18.051,0.000000,0.002258,0.089111,0.941467,9.297709,17.809160,0.412214
0.129441,18:23:18.051,0.000000,0.002258,0.089111,0.941467,9.297709,17.809160,0.412214
0.130235,18:23:18.052,0.000000,0.002258,0.089111,0.941467,9.297709,17.809160,0.412214
0.131029,18:23:18.053,0.000000,0.002258,0.089111,0.941467,9.297709,17.809160,0.412214
0.131824,18:23:18.054,0.000000,0.002258,0.089111,0.941467,9.297709,17.809160,0.412214
0.132618,18:23:18.055,0.000000,0.002258,0.089111,0.941467,9.297709,17.809160,0.412214
0.133412,18:23:18.055,0.000000,0.002258,0.089111,0.941467,9.297709,17.809160,0.412214
0.134206,18:23:18.056,0.000000,0.002258,0.089111,0.941467,9.297709,17.809160,0.412214
0.135000,18:23:18.057,0.000000,0.002258,0.089111,0.941467,9.297709,17.809160,0.412214
0.135794,18:23:18.058,0.000000,0.000610,0.090332,0.940186,7.190840,18.488550,0.450382
0.136588,18:23:18.058,0.000000,0.000610,0.090332,0.940186,7.190840,18.488550,0.450382
0.137382,18:23:18.059,0.000000,0.000610,0.090332,0.940186,7.190840,18.488550,0.450382
0.138176,18:23:18.060,0.000000,0.000610,0.090332,0.940186,7.190840,18.488550,0.450382
0.138971,18:23:18.061,0.000000,0.000610,0.090332,0.940186,7.190840,18.488550,0.450382
0.139765,18:23:18.062,0.000000,0.000610,0.090332,0.940186,7.190840,18.488550,0.450382
0.140559,18:23:18.062,0.000000,0.000610,0.090332,0.940186,7.190840,18.488550,0.450382
0.141353,18:23:18.063,0.000000,0.000610,0.090332,0.940186,7.190840,18.488550,0.450382
0.142147,18:23:18.064,0.000000,-0.005859,0.096069,0.941162,4.839694,18.488550,0.557252
0.142941,18:23:18.065,0.000000,-0.005859,0.096069,0.941162,4.839694,18.488550,0.557252
0.143735,18:23:18.066,0.000000,-0.005859,0.096069,0.941162,4.839694,18.488550,0.557252
0.144529,18:23:18.066,0.000000,-0.005859,0.096069,0.941162,4.839694,18.488550,0.557252
0.145324,18:23:18.067,0.000000,-0.005859,0.096069,0.941162,4.839694,18.488550,0.557252
0.146118,18:23:18.068,0.000000,-0.005859,0.096069,0.941162,4.839694,18.488550,0.557252
0.146912,18:23:18.069,0.000000,-0.005859,0.096069,0.941162,4.839694,18.488550,0.557252
0.147706,18:23:18.070,0.000000,-0.005859,0.096069,0.941162,4.839694,18.488550,0.557252
0.148500,18:23:18.070,0.000000,-0.006653,0.094666,0.942627,2.450382,18.427481,0.580153
0.149294,18:23:18.071,0.000000,-0.006653,0.094666,0.942627,2.450382,18.427481,0.580153
0.150088,18:23:18.072,0.000000,-0.006653,0.094666,0.942627,2.450382,18.427481,0.580153
0.150882,18:23:18.073,0.000000,-0.006653,0.094666,0.942627,2.450382,18.427481,0.580153
0.151676,18:23:18.074,0.000000,-0.006653,0.094666,0.942627,2.450382,18.427481,0.580153
0.152471,18:23:18.074,0.000000,-0.006653,0.094666,0.942627,2.450382,18.427481,0.580153
0.153265,18:23:18.075,0.000000,-0.006653,0.094666,0.942627,2.450382,18.427481,0.580153
0.154059,18:23:18.076,0.000000,-0.006653,0.094666,0.942627,2.450382,18.427481,0.580153
0.154853,18:23:18.077,0.000000,-0.006653,0.094666,0.942627,2.450382,18.427481,0.580153
0.155647,18:23:18.078,0.000000,-0.004944,0.089661,0.942139,0.610687,18.587786,0.725191
0.156441,18:23:18.078,0.000000,-0.004944,0.089661,0.942139,0.610687,18.587786,0.725191
0.157235,18:23:18.079,0.000000,-0.004944,0.089661,0.942139,0.610687,18.587786,0.725191
0.158029,18:23:18.080,0.000000,-0.004944,0.089661,0.942139,0.610687,18.587786,0.725191
0.158824,18:23:18.081,0.000000,-0.004944,0.089661,0.942139,0.610687,18.587786,0.725191
0.159618,18:23:18.082,0.000000,-0.004944,0.089661,0.942139,0.610687,18.587786,0.725191
0.160412,18:23:18.082,0.000000,-0.004944,0.089661,0.942139,0.610687,18.587786,0.725191
0.161206,18:23:18.083,0.000000,-0.004944,0.089661,0.942139,0.610687,18.587786,0.725191
0.162000,18:23:18.084,1.737072,-0.004944,0.089661,0.942139,0.610687,18.587786,0.725191
0.162794,18:23:18.085,1.261051,-0.004822,0.084961,0.944702,-0.809160,18.770992,1.190840
0.163588,18:23:18.085,0.714031,-0.004822,0.084961,0.944702,-0.809160,18.770992,1.190840
0.164382,18:23:18.086,0.170367,-0.004822,0.084961,0.944702,-0.809160,18.770992,1.190840
0.165176,18:23:18.087,-0.670893,-0.004822,0.084961,0.944702,-0.809160,18.770992,1.190840
0.165971,18:23:18.088,-0.670893,-0.004822,0.084961,0.944702,-0.809160,18.770992,1.190840
0.166765,18:23:18.089,-1.962325,-0.004822,0.084961,0.944702,-0.809160,18.770992,1.190840
0.167559,18:23:18.089,-2.271000,-0.004822,0.084961,0.944702,-0.809160,18.770992,1.190840
0.168353,18:23:18.090,-2.368521,-0.004822,0.084961,0.944702,-0.809160,18.770992,1.190840
0.169147,18:23:18.091,-2.291310,0.000122,0.077881,0.948425,-1.053435,18.679390,1.076336
0.169941,18:23:18.092,-2.102983,0.000122,0.077881,0.948425,-1.053435,18.679390,1.076336
0.170735,18:23:18.093,-1.818647,0.000122,0.077881,0.948425,-1.053435,18.679390,1.076336
0.171529,18:23:18.093,-1.467842,0.000122,0.077881,0.948425,-1.053435,18.679390,1.076336
0.172324,18:23:18.094,-1.467842,0.000122,0.077881,0.948425,-1.053435,18.679390,1.076336
0.173118,18:23:18.095,-0.530907,0.000122,0.077881,0.948425,-1.053435,18.679390,1.076336
0.173912,18:23:18.096,-0.028702,0.000122,0.077881,0.948425,-1.053435,18.679390,1.076336
0.174706,18:23:18.097,0.413077,0.000122,0.077881,0.948425,-1.053435,18.679390,1.076336
0.175500,18:23:18.097,0.965972,0.004761,0.074585,0.953308,-0.351145,18.786259,0.961832
0.176294,18:23:18.098,1.412955,0.004761,0.074585,0.953308,-0.351145,18.786259,0.961832
0.177088,18:23:18.099,1.730694,0.004761,0.074585,0.953308,-0.351145,18.786259,0.961832
0.177882,18:23:18.100,1.986831,0.004761,0.074585,0.953308,-0.351145,18.786259,0.961832
0.178676,18:23:18.101,2.181201,0.004761,0.074585,0.953308,-0.351145,18.786259,0.961832
0.179471,18:23:18.101,2.353414,0.004761,0.074585,0.953308,-0.351145,18.786259,0.961832
0.180265,18:23:18.102,2.321187,0.004761,0.074585,0.953308,-0.351145,18.786259,0.961832
0.181059,18:23:18.103,2.126482,0.004761,0.074585,0.953308,-0.351145,18.786259,0.961832
0.181853,18:23:18.104,1.781720,0.004761,0.074585,0.953308,-0.351145,18.786259,0.961832
0.182647,18:23:18.105,1.781720,0.003662,0.072327,0.957275,1.251908,18.671755,0.900763
0.183441,18:23:18.105,0.802487,0.003662,0.072327,0.957275,1.251908,18.671755,0.900763
0.184235,18:23:18.106,0.311696,0.003662,0.072327,0.957275,1.251908,18.671755,0.900763
0.185029,18:23:18.107,-0.407370,0.003662,0.072327,0.957275,1.251908,18.671755,0.900763
0.185824,18:23:18.108,-1.222446,0.003662,0.072327,0.957275,1.251908,18.671755,0.900763
0.186618,18:23:18.109,-1.696788,0.003662,0.072327,0.957275,1.251908,18.671755,0.900763
0.187412,18:23:18.109,-1.986160,0.003662,0.072327,0.957275,1.251908,18.671755,0.900763
0.188206,18:23:18.110,-2.099290,0.003662,0.072327,0.957275,1.251908,18.671755,0.900763
0.189000,18:23:18.111,-2.099290,0.003662,0.072327,0.957275,1.251908,18.671755,0.900763
0.189794,18:23:18.112,-1.797498,0.001587,0.067261,0.954468,3.068702,19.007633,0.946565
0.190588,18:23:18.112,-1.456764,0.001587,0.067261,0.954468,3.068702,19.007633,0.946565
0.191382,18:23:18.113,-1.074403,0.001587,0.067261,0.954468,3.068702,19.007633,0.946565
0.192176,18:23:18.114,-0.657465,0.001587,0.067261,0.954468,3.068702,19.007633,0.946565
0.192971,18:23:18.115,-0.136629,0.001587,0.067261,0.954468,3.068702,19.007633,0.946565
0.193765,18:23:18.116,0.368933,0.001587,0.067261,0.954468,3.068702,19.007633,0.946565
0.194559,18:23:18.116,0.792081,0.001587,0.067261,0.954468,3.068702,19.007633,0.946565
0.195353,18:23:18.117,0.792081,0.001587,0.067261,0.954468,3.068702,19.007633,0.946565
0.196147,18:23:18.118,1.764263,-0.000977,0.070618,0.950684,4.358778,18.740458,0.977099
0.196941,18:23:18.119,2.079149,-0.000977,0.070618,0.950684,4.358778,18.740458,0.977099
0.197735,18:23:18.120,2.328069,-0.000977,0.070618,0.950684,4.358778,18.740458,0.977099
0.198529,18:23:18.120,2.506493,-0.000977,0.070618,0.950684,4.358778,18.740458,0.977099
0.199324,18:23:18.121,2.716976,-0.000977,0.070618,0.950684,4.358778,18.740458,0.977099
0.200118,18:23:18.122,2.739803,-0.000977,0.070618,0.950684,4.358778,18.740458,0.977099
0.200912,18:23:18.123,2.569268,-0.000977,0.070618,0.950684,4.358778,18.740458,0.977099
0.201706,18:23:18.124,2.226520,-0.000977,0.070618,0.950684,4.358778,18.740458,0.977099
0.202500,18:23:18.124,1.720623,-0.007996,0.068054,0.947754,5.595420,18.511450,0.717557
0.203294,18:23:18.125,1.078096,-0.007996,0.068054,0.947754,5.595420,18.511450,0.717557
0.204088,18:23:18.126,0.486259,-0.007996,0.068054,0.947754,5.595420,18.511450,0.717557
0.204882,18:23:18.127,-0.267048,-0.007996,0.068054,0.947754,5.595420,18.511450,0.717557
0.205676,18:23:18.128,-1.254337,-0.007996,0.068054,0.947754,5.595420,18.511450,0.717557
0.206471,18:23:18.128,-1.942016,-0.007996,0.068054,0.947754,5.595420,18.511450,0.717557
0.207265,18:23:18.129,-2.406455,-0.007996,0.068054,0.947754,5.595420,18.511450,0.717557
0.208059,18:23:18.130,-2.701869,-0.007996,0.068054,0.947754,5.595420,18.511450,0.717557
0.208853,18:23:18.131,-2.769512,-0.007996,0.068054,0.947754,5.595420,18.511450,0.717557
0.209647,18:23:18.132,-2.706737,-0.004028,0.074097,0.948364,6.076336,18.015266,0.603053
0.210441,18:23:18.132,-2.490883,-0.004028,0.074097,0.948364,6.076336,18.015266,0.603053
0.211235,18:23:18.133,-2.196307,-0.004028,0.074097,0.948364,6.076336,18.015266,0.603053
0.212029,18:23:18.134,-1.859266,-0.004028,0.074097,0.948364,6.076336,18.015266,0.603053
0.212824,18:23:18.135,-1.405402,-0.004028,0.074097,0.948364,6.076336,18.015266,0.603053
0.213618,18:23:18.136,-0.918639,-0.004028,0.074097,0.948364,6.076336,18.015266,0.603053
0.214412,18:23:18.136,-0.529229,-0.004028,0.074097,0.948364,6.076336,18.015266,0.603053
0.215206,18:23:18.137,-0.039780,-0.004028,0.074097,0.948364,6.076336,18.015266,0.603053
0.216000,18:23:18.138,0.438926,-0.005127,0.073975,0.951904,7.175572,17.488550,0.427481
0.216794,18:23:18.139,0.776471,-0.005127,0.073975,0.951904,7.175572,17.488550,0.427481
0.217588,18:23:18.139,1.064668,-0.005127,0.073975,0.951904,7.175572,17.488550,0.427481
0.218382,18:23:18.140,1.293950,-0.005127,0.073975,0.951904,7.175572,17.488550,0.427481
0.219176,18:23:18.141,1.545388,-0.005127,0.073975,0.951904,7.175572,17.488550,0.427481
0.219971,18:23:18.142,1.702495,-0.005127,0.073975,0.951904,7.175572,17.488550,0.427481
0.220765,18:23:18.143,1.663554,-0.005127,0.073975,0.951904,7.175572,17.488550,0.427481
0.221559,18:23:18.143,1.450385,-0.005127,0.073975,0.951904,7.175572,17.488550,0.427481
0.222353,18:23:18.144,1.107301,-0.005127,0.073975,0.951904,7.175572,17.488550,0.427481
0.223147,18:23:18.145,0.632120,-0.004578,0.078857,0.950928,8.198473,17.267176,0.503817
0.223941,18:23:18.146,0.196216,-0.004578,0.078857,0.950928,8.198473,17.267176,0.503817
0.224735,18:23:18.147,-0.311360,-0.004578,0.078857,0.950928,8.198473,17.267176,0.503817
0.225529,18:23:18.147,-1.103609,-0.004578,0.078857,0.950928,8.198473,17.267176,0.503817
0.226324,18:23:18.148,-1.702159,-0.004578,0.078857,0.950928,8.198473,17.267176,0.503817
0.227118,18:23:18.149,-2.026612,-0.004578,0.078857,0.950928,8.198473,17.267176,0.503817
0.227912,18:23:18.150,-2.190936,-0.004578,0.078857,0.950928,8.198473,17.267176,0.503817
0.228706,18:23:18.151,-2.131518,-0.004578,0.078857,0.950928,8.198473,17.267176,0.503817
0.229500,18:23:18.151,-1.945541,-0.005005,0.081848,0.946838,8.564885,17.442749,0.396947
0.230294,18:23:18.152,-1.645090,-0.005005,0.081848,0.946838,8.564885,17.442749,0.396947
0.231088,18:23:18.153,-1.246281,-0.005005,0.081848,0.946838,8.564885,17.442749,0.396947
0.231882,18:23:18.154,-0.826322,-0.005005,0.081848,0.946838,8.564885,17.442749,0.396947
0.232676,18:23:18.155,-0.365576,-0.005005,0.081848,0.946838,8.564885,17.442749,0.396947
0.233471,18:23:18.155,0.144182,-0.005005,0.081848,0.946838,8.564885,17.442749,0.396947
0.234265,18:23:18.156,0.541650,-0.005005,0.081848,0.946838,8.564885,17.442749,0.396947
0.235059,18:23:18.157,0.981079,-0.005005,0.081848,0.946838,8.564885,17.442749,0.396947
0.235853,18:23:18.158,1.420508,-0.005005,0.081848,0.946838,8.564885,17.442749,0.396947
0.236647,18:23:18.159,1.689738,-0.002808,0.087952,0.945312,8.580153,17.435114,0.580153
0.237441,18:23:18.159,1.889143,-0.002808,0.087952,0.945312,8.580153,17.435114,0.580153
0.238235,18:23:18.160,2.029129,-0.002808,0.087952,0.945312,8.580153,17.435114,0.580153
0.239029,18:23:18.161,2.177844,-0.002808,0.087952,0.945312,8.580153,17.435114,0.580153
0.239824,18:23:18.162,2.224674,-0.002808,0.087952,0.945312,8.580153,17.435114,0.580153
0.240618,18:23:18.163,2.073777,-0.002808,0.087952,0.945312,8.580153,17.435114,0.580153
0.241412,18:23:18.163,1.760906,-0.002808,0.087952,0.945312,8.580153,17.435114,0.580153
0.242206,18:23:18.164,1.290257,-0.002808,0.087952,0.945312,8.580153,17.435114,0.580153
0.243000,18:23:18.165,0.701442,-0.001953,0.088135,0.948059,7.778626,17.648855,0.587786
0.243794,18:23:18.166,0.127733,-0.001953,0.088135,0.948059,7.778626,17.648855,0.587786
0.244588,18:23:18.166,-0.446647,-0.001953,0.088135,0.948059,7.778626,17.648855,0.587786
0.245382,18:23:18.167,-1.296803,-0.001953,0.088135,0.948059,7.778626,17.648855,0.587786
0.246176,18:23:18.168,-2.035508,-0.001953,0.088135,0.948059,7.778626,17.648855,0.587786
0.246971,18:23:18.169,-2.461509,-0.001953,0.088135,0.948059,7.778626,17.648855,0.587786
0.247765,18:23:18.170,-2.716640,-0.001953,0.088135,0.948059,7.778626,17.648855,0.587786
0.248559,18:23:18.170,-2.728893,-0.001953,0.088135,0.948059,7.778626,17.648855,0.587786
0.249353,18:23:18.171,-2.582361,-0.001953,0.088135,0.948059,7.778626,17.648855,0.587786
0.250147,18:23:18.172,-2.270329,-0.003784,0.092102,0.946533,7.083970,18.183207,0.427481
0.250941,18:23:18.173,-1.841474,-0.003784,0.092102,0.946533,7.083970,18.183207,0.427481
0.251735,18:23:18.174,-1.356558,-0.003784,0.092102,0.946533,7.083970,18.183207,0.427481
0.252529,18:23:18.174,-0.831357,-0.003784,0.092102,0.946533,7.083970,18.183207,0.427481
0.253324,18:23:18.175,-0.229450,-0.003784,0.092102,0.946533,7.083970,18.183207,0.427481
0.254118,18:23:18.176,0.283833,-0.003784,0.092102,0.946533,7.083970,18.183207,0.427481
0.254912,18:23:18.177,0.816922,-0.003784,0.092102,0.946533,7.083970,18.183207,0.427481
0.255706,18:23:18.178,1.389288,-0.003784,0.092102,0.946533,7.083970,18.183207,0.427481
0.256500,18:23:18.178,1.791791,-0.004211,0.091003,0.945557,5.992366,18.427481,0.511450
0.257294,18:23:18.179,2.109697,-0.004211,0.091003,0.945557,5.992366,18.427481,0.511450
0.258088,18:23:18.180,2.346029,-0.004211,0.091003,0.945557,5.992366,18.427481,0.511450
0.258882,18:23:18.181,2.588067,-0.004211,0.091003,0.945557,5.992366,18.427481,0.511450
0.259676,18:23:18.182,2.752560,-0.004211,0.091003,0.945557,5.992366,18.427481,0.511450
0.260471,18:23:18.182,2.679377,-0.004211,0.091003,0.945557,5.992366,18.427481,0.511450
0.261265,18:23:18.183,2.679377,-0.004211,0.091003,0.945557,5.992366,18.427481,0.511450
0.262059,18:23:18.184,2.070085,-0.004211,0.091003,0.945557,5.992366,18.427481,0.511450
0.262853,18:23:18.185,1.483955,-0.004211,0.091003,0.945557,5.992366,18.427481,0.511450
0.263647,18:23:18.186,0.863584,-0.007385,0.092346,0.944275,5.061069,18.572519,0.679389
0.264441,18:23:18.186,0.306996,-0.007385,0.092346,0.944275,5.061069,18.572519,0.679389
0.265235,18:23:18.187,0.306996,-0.007385,0.092346,0.944275,5.061069,18.572519,0.679389
0.266029,18:23:18.188,-1.386770,-0.007385,0.092346,0.944275,5.061069,18.572519,0.679389
0.266824,18:23:18.189,-1.924895,-0.007385,0.092346,0.944275,5.061069,18.572519,0.679389
0.267618,18:23:18.190,-2.276204,-0.007385,0.092346,0.944275,5.061069,18.572519,0.679389
0.268412,18:23:18.190,-2.408804,-0.007385,0.092346,0.944275,5.061069,18.572519,0.679389
0.269206,18:23:18.191,-2.367681,-0.007385,0.092346,0.944275,5.061069,18.572519,0.679389
0.270000,18:23:18.192,-2.178683,-0.007385,0.092346,0.944275,5.061069,18.572519,0.679389
0.270794,18:23:18.193,-1.857252,-0.003174,0.096741,0.944214,4.679389,18.526718,0.541985
0.271588,18:23:18.193,-1.455756,-0.003174,0.096741,0.944214,4.679389,18.526718,0.541985
0.272382,18:23:18.194,-1.025727,-0.003174,0.096741,0.944214,4.679389,18.526718,0.541985
0.273176,18:23:18.195,-0.517815,-0.003174,0.096741,0.944214,4.679389,18.526718,0.541985
0.273971,18:23:18.196,-0.066972,-0.003174,0.096741,0.944214,4.679389,18.526718,0.541985
0.274765,18:23:18.197,0.370779,-0.003174,0.096741,0.944214,4.679389,18.526718,0.541985
0.275559,18:23:18.197,0.914946,-0.003174,0.096741,0.944214,4.679389,18.526718,0.541985
0.276353,18:23:18.198,1.294118,-0.003174,0.096741,0.944214,4.679389,18.526718,0.541985
0.277147,18:23:18.199,1.564523,0.000488,0.099915,0.947510,4.618320,18.099237,0.335878
0.277941,18:23:18.200,1.564523,0.000488,0.099915,0.947510,4.618320,18.099237,0.335878
0.278735,18:23:18.201,2.014023,0.000488,0.099915,0.947510,4.618320,18.099237,0.335878
0.279529,18:23:18.201,2.180194,0.000488,0.099915,0.947510,4.618320,18.099237,0.335878
0.280324,18:23:18.202,2.136217,0.000488,0.099915,0.947510,4.618320,18.099237,0.335878
0.281118,18:23:18.203,1.922713,0.000488,0.099915,0.947510,4.618320,18.099237,0.335878
0.281912,18:23:18.204,1.922713,0.000488,0.099915,0.947510,4.618320,18.099237,0.335878
0.282706,18:23:18.205,1.042512,0.000488,0.099915,0.947510,4.618320,18.099237,0.335878
0.283500,18:23:18.205,0.430869,0.002930,0.097656,0.946045,4.603054,17.213741,0.419847
0.284294,18:23:18.206,-0.108095,0.002930,0.097656,0.946045,4.603054,17.213741,0.419847
0.285088,18:23:18.207,-0.850156,0.002930,0.097656,0.946045,4.603054,17.213741,0.419847
0.285882,18:23:18.208,-1.699474,0.002930,0.097656,0.946045,4.603054,17.213741,0.419847
0.286676,18:23:18.209,-2.276875,0.002930,0.097656,0.946045,4.603054,17.213741,0.419847
0.287471,18:23:18.209,-2.648829,0.002930,0.097656,0.946045,4.603054,17.213741,0.419847
0.288265,18:23:18.210,-2.790158,0.002930,0.097656,0.946045,4.603054,17.213741,0.419847
0.289059,18:23:18.211,-2.718318,0.002930,0.097656,0.946045,4.603054,17.213741,0.419847
0.289853,18:23:18.212,-2.504479,0.002930,0.097656,0.946045,4.603054,17.213741,0.419847
0.290647,18:23:18.213,-2.169451,0.013428,0.096313,0.942932,3.847328,16.503817,0.748092
0.291441,18:23:18.213,-1.721798,0.013428,0.096313,0.942932,3.847328,16.503817,0.748092
0.292235,18:23:18.214,-1.219425,0.013428,0.096313,0.942932,3.847328,16.503817,0.748092
0.293029,18:23:18.215,-0.664851,0.013428,0.096313,0.942932,3.847328,16.503817,0.748092
0.293824,18:23:18.216,-0.150896,0.013428,0.096313,0.942932,3.847328,16.503817,0.748092
0.294618,18:23:18.217,-0.150896,0.013428,0.096313,0.942932,3.847328,16.503817,0.748092
0.295412,18:23:18.217,0.916289,0.013428,0.096313,0.942932,3.847328,16.503817,0.748092
0.296206,18:23:18.218,1.392981,0.013428,0.096313,0.942932,3.847328,16.503817,0.748092
0.297000,18:23:18.219,1.727337,0.023193,0.092529,0.940063,1.778626,17.183207,1.366412
0.297794,18:23:18.220,2.008988,0.023193,0.092529,0.940063,1.778626,17.183207,1.366412
0.298588,18:23:18.220,2.008988,0.023193,0.092529,0.940063,1.778626,17.183207,1.366412
0.299382,18:23:18.221,2.518914,0.023193,0.092529,0.940063,1.778626,17.183207,1.366412
0.300176,18:23:18.222,2.549630,0.023193,0.092529,0.940063,1.778626,17.183207,1.366412
0.300971,18:23:18.223,2.383963,0.023193,0.092529,0.940063,1.778626,17.183207,1.366412
0.301765,18:23:18.224,2.062699,0.023193,0.092529,0.940063,1.778626,17.183207,1.366412
0.302559,18:23:18.224,1.601114,0.023193,0.092529,0.940063,1.778626,17.183207,1.366412
0.303353,18:23:18.225,1.015488,0.023193,0.092529,0.940063,1.778626,17.183207,1.366412
0.304147,18:23:18.226,0.474510,0.027710,0.088074,0.935791,-1.603053,18.648855,1.916031
0.304941,18:23:18.227,-0.195544,0.027710,0.088074,0.935791,-1.603053,18.648855,1.916031
0.305735,18:23:18.228,-1.058625,0.027710,0.088074,0.935791,-1.603053,18.648855,1.916031
0.306529,18:23:18.228,-1.688731,0.027710,0.088074,0.935791,-1.603053,18.648855,1.916031
0.307324,18:23:18.229,-2.085695,0.027710,0.088074,0.935791,-1.603053,18.648855,1.916031
0.308118,18:23:18.230,-2.304738,0.027710,0.088074,0.935791,-1.603053,18.648855,1.916031
0.308912,18:23:18.231,-2.314473,0.027710,0.088074,0.935791,-1.603053,18.648855,1.916031
0.309706,18:23:18.232,-2.158709,0.027710,0.088074,0.935791,-1.603053,18.648855,1.916031
0.310500,18:23:18.232,-1.855406,0.026062,0.080078,0.932922,-3.633588,19.633587,1.916031
0.311294,18:23:18.233,-1.855406,0.026062,0.080078,0.932922,-3.633588,19.633587,1.916031
0.312088,18:23:18.234,-1.040162,0.026062,0.080078,0.932922,-3.633588,19.633587,1.916031
0.312882,18:23:18.235,-0.546685,0.026062,0.080078,0.932922,-3.633588,19.633587,1.916031
0.313676,18:23:18.236,-0.068315,0.026062,0.080078,0.932922,-3.633588,19.633587,1.916031
0.314471,18:23:18.236,0.333852,0.026062,0.080078,0.932922,-3.633588,19.633587,1.916031
0.315265,18:23:18.237,0.333852,0.026062,0.080078,0.932922,-3.633588,19.633587,1.916031
0.316059,18:23:18.238,1.291936,0.026062,0.080078,0.932922,-3.633588,19.633587,1.916031
0.316853,18:23:18.239,1.566873,0.026062,0.080078,0.932922,-3.633588,19.633587,1.916031
0.317647,18:23:18.240,1.808576,0.016602,0.069946,0.933655,-7.641222,21.809160,1.770992
0.318441,18:23:18.240,2.003281,0.016602,0.069946,0.933655,-7.641222,21.809160,1.770992
0.319235,18:23:18.241,2.228870,0.016602,0.069946,0.933655,-7.641222,21.809160,1.770992
0.320029,18:23:18.242,2.266468,0.016602,0.069946,0.933655,-7.641222,21.809160,1.770992
0.320824,18:23:18.243,2.086870,0.016602,0.069946,0.933655,-7.641222,21.809160,1.770992
0.321618,18:23:18.244,1.778363,0.016602,0.069946,0.933655,-7.641222,21.809160,1.770992
0.322412,18:23:18.244,1.352026,0.016602,0.069946,0.933655,-7.641222,21.809160,1.770992
0.323206,18:23:18.245,0.770596,0.016602,0.069946,0.933655,-7.641222,21.809160,1.770992
0.324000,18:23:18.246,0.228779,0.016602,0.069946,0.933655,-7.641222,21.809160,1.770992
0.324794,18:23:18.247,-0.359030,-0.004089,0.063599,0.942505,-10.251908,23.458015,1.213740
0.325588,18:23:18.247,-1.190890,-0.004089,0.063599,0.942505,-10.251908,23.458015,1.213740
0.326382,18:23:18.248,-1.848859,-0.004089,0.063599,0.942505,-10.251908,23.458015,1.213740
0.327176,18:23:18.249,-2.278553,-0.004089,0.063599,0.942505,-10.251908,23.458015,1.213740
0.327971,18:23:18.250,-2.278553,-0.004089,0.063599,0.942505,-10.251908,23.458015,1.213740
0.328765,18:23:18.251,-2.502968,-0.004089,0.063599,0.942505,-10.251908,23.458015,1.213740
0.329559,18:23:18.251,-2.334279,-0.004089,0.063599,0.942505,-10.251908,23.458015,1.213740
0.330353,18:23:18.252,-2.025101,-0.004089,0.063599,0.942505,-10.251908,23.458015,1.213740
0.331147,18:23:18.253,-1.607492,-0.022522,0.052429,0.951538,-10.801527,23.900763,0.946565
0.331941,18:23:18.254,-1.607492,-0.022522,0.052429,0.951538,-10.801527,23.900763,0.946565
0.332735,18:23:18.255,-0.644709,-0.022522,0.052429,0.951538,-10.801527,23.900763,0.946565
0.333529,18:23:18.255,-0.119005,-0.022522,0.052429,0.951538,-10.801527,23.900763,0.946565
0.334324,18:23:18.256,0.320089,-0.022522,0.052429,0.951538,-10.801527,23.900763,0.946565
0.335118,18:23:18.257,0.824308,-0.022522,0.052429,0.951538,-10.801527,23.900763,0.946565
0.335912,18:23:18.258,1.325170,-0.022522,0.052429,0.951538,-10.801527,23.900763,0.946565
0.336706,18:23:18.259,1.646433,-0.022522,0.052429,0.951538,-10.801527,23.900763,0.946565
0.337500,18:23:18.259,1.913313,-0.034180,0.045776,0.959473,-8.068703,22.564886,0.832061
0.338294,18:23:18.260,2.134203,-0.034180,0.045776,0.959473,-8.068703,22.564886,0.832061
0.339088,18:23:18.261,2.345022,-0.034180,0.045776,0.959473,-8.068703,22.564886,0.832061
0.339882,18:23:18.262,2.420218,-0.034180,0.045776,0.959473,-8.068703,22.564886,0.832061
0.340676,18:23:18.263,2.279225,-0.034180,0.045776,0.959473,-8.068703,22.564886,0.832061
0.341471,18:23:18.263,1.979110,-0.034180,0.045776,0.959473,-8.068703,22.564886,0.832061
0.342265,18:23:18.264,1.538674,-0.034180,0.045776,0.959473,-8.068703,22.564886,0.832061
0.343059,18:23:18.265,0.958587,-0.034180,0.045776,0.959473,-8.068703,22.564886,0.832061
0.343853,18:23:18.266,0.374807,-0.034180,0.045776,0.959473,-8.068703,22.564886,0.832061
0.344647,18:23:18.267,0.374807,-0.037292,0.042236,0.968628,-2.083969,19.908398,0.938931
0.345441,18:23:18.267,-1.013977,-0.037292,0.042236,0.968628,-2.083969,19.908398,0.938931
0.346235,18:23:18.268,-1.768292,-0.037292,0.042236,0.968628,-2.083969,19.908398,0.938931
0.347029,18:23:18.269,-2.267140,-0.037292,0.042236,0.968628,-2.083969,19.908398,0.938931
0.347824,18:23:18.270,-2.578668,-0.037292,0.042236,0.968628,-2.083969,19.908398,0.938931
0.348618,18:23:18.271,-2.578668,-0.037292,0.042236,0.968628,-2.083969,19.908398,0.938931
0.349412,18:23:18.271,-2.545434,-0.037292,0.042236,0.968628,-2.083969,19.908398,0.938931
0.350206,18:23:18.272,-2.285771,-0.037292,0.042236,0.968628,-2.083969,19.908398,0.938931
0.351000,18:23:18.273,-1.923049,-0.024963,0.044800,0.974426,6.328244,15.770992,0.824427
0.351794,18:23:18.274,-1.465156,-0.024963,0.044800,0.974426,6.328244,15.770992,0.824427
0.352588,18:23:18.274,-0.952544,-0.024963,0.044800,0.974426,6.328244,15.770992,0.824427
0.353382,18:23:18.275,-0.436912,-0.024963,0.044800,0.974426,6.328244,15.770992,0.824427
0.354176,18:23:18.276,-0.008896,-0.024963,0.044800,0.974426,6.328244,15.770992,0.824427
0.354971,18:23:18.277,0.473838,-0.024963,0.044800,0.974426,6.328244,15.770992,0.824427
0.355765,18:23:18.278,1.003906,-0.024963,0.044800,0.974426,6.328244,15.770992,0.824427
0.356559,18:23:18.278,1.368139,-0.024963,0.044800,0.974426,6.328244,15.770992,0.824427
0.357353,18:23:18.279,1.640726,-0.024963,0.044800,0.974426,6.328244,15.770992,0.824427
0.358147,18:23:18.280,1.888472,-0.009521,0.055237,0.973877,15.870229,12.068703,0.427481
0.358941,18:23:18.281,2.160388,-0.009521,0.055237,0.973877,15.870229,12.068703,0.427481
0.359735,18:23:18.282,2.320851,-0.009521,0.055237,0.973877,15.870229,12.068703,0.427481
0.360529,18:23:18.282,2.223163,-0.009521,0.055237,0.973877,15.870229,12.068703,0.427481
0.361324,18:23:18.283,2.223163,-0.009521,0.055237,0.973877,15.870229,12.068703,0.427481
0.362118,18:23:18.284,1.620249,-0.009521,0.055237,0.973877,15.870229,12.068703,0.427481
0.362912,18:23:18.285,1.093202,-0.009521,0.055237,0.973877,15.870229,12.068703,0.427481
0.363706,18:23:18.286,0.536110,-0.009521,0.055237,0.973877,15.870229,12.068703,0.427481
0.364500,18:23:18.286,0.024674,0.002563,0.070312,0.971619,23.625954,10.458015,0.190840
0.365294,18:23:18.287,0.024674,0.002563,0.070312,0.971619,23.625954,10.458015,0.190840
0.366088,18:23:18.288,-1.485634,0.002563,0.070312,0.971619,23.625954,10.458015,0.190840
0.366882,18:23:18.289,-1.992203,0.002563,0.070312,0.971619,23.625954,10.458015,0.190840
0.367676,18:23:18.290,-2.309438,0.002563,0.070312,0.971619,23.625954,10.458015,0.190840
0.368471,18:23:18.290,-2.406622,0.002563,0.070312,0.971619,23.625954,10.458015,0.190840
0.369265,18:23:18.291,-2.319509,0.002563,0.070312,0.971619,23.625954,10.458015,0.190840
0.370059,18:23:18.292,-2.062196,0.002563,0.070312,0.971619,23.625954,10.458015,0.190840
0.370853,18:23:18.293,-1.717266,0.002563,0.070312,0.971619,23.625954,10.458015,0.190840
0.371647,18:23:18.294,-1.270787,0.015076,0.090698,0.961609,28.267176,10.870229,0.129771
0.372441,18:23:18.294,-0.776303,0.015076,0.090698,0.961609,28.267176,10.870229,0.129771
0.373235,18:23:18.295,-0.236164,0.015076,0.090698,0.961609,28.267176,10.870229,0.129771
0.374029,18:23:18.296,0.204944,0.015076,0.090698,0.961609,28.267176,10.870229,0.129771
0.374824,18:23:18.297,0.660487,0.015076,0.090698,0.961609,28.267176,10.870229,0.129771
0.375618,18:23:18.298,1.164706,0.015076,0.090698,0.961609,28.267176,10.870229,0.129771
0.376412,18:23:18.298,1.521050,0.015076,0.090698,0.961609,28.267176,10.870229,0.129771
0.377206,18:23:18.299,1.764263,0.015076,0.090698,0.961609,28.267176,10.870229,0.129771
0.378000,18:23:18.300,1.764263,0.015076,0.090698,0.961609,28.267176,10.870229,0.129771
0.378794,18:23:18.301,2.198993,0.025269,0.108459,0.945496,28.709923,13.122137,-0.160305
0.379588,18:23:18.301,2.349554,0.025269,0.108459,0.945496,28.709923,13.122137,-0.160305
0.380382,18:23:18.302,2.246998,0.025269,0.108459,0.945496,28.709923,13.122137,-0.160305
0.381176,18:23:18.303,1.956283,0.025269,0.108459,0.945496,28.709923,13.122137,-0.160305
0.381971,18:23:18.304,1.956283,0.025269,0.108459,0.945496,28.709923,13.122137,-0.160305
0.382765,18:23:18.305,1.004242,0.025269,0.108459,0.945496,28.709923,13.122137,-0.160305
0.383559,18:23:18.305,0.389242,0.025269,0.108459,0.945496,28.709923,13.122137,-0.160305
0.384353,18:23:18.306,-0.183124,0.025269,0.108459,0.945496,28.709923,13.122137,-0.160305
0.385147,18:23:18.307,-0.906218,0.015991,0.127380,0.927368,24.030535,15.885496,-0.236641
0.385941,18:23:18.308,-1.704677,0.015991,0.127380,0.927368,24.030535,15.885496,-0.236641
0.386735,18:23:18.309,-2.278889,0.015991,0.127380,0.927368,24.030535,15.885496,-0.236641
0.387529,18:23:18.309,-2.675685,0.015991,0.127380,0.927368,24.030535,15.885496,-0.236641
0.388324,18:23:18.310,-2.824063,0.015991,0.127380,0.927368,24.030535,15.885496,-0.236641
0.389118,18:23:18.311,-2.756252,0.015991,0.127380,0.927368,24.030535,15.885496,-0.236641
0.389912,18:23:18.312,-2.518914,0.015991,0.127380,0.927368,24.030535,15.885496,-0.236641
0.390706,18:23:18.313,-2.518914,0.015991,0.127380,0.927368,24.030535,15.885496,-0.236641
0.391500,18:23:18.313,-1.684367,0.015991,0.127380,0.927368,24.030535,15.885496,-0.236641
0.392294,18:23:18.314,-1.163867,0.006104,0.130676,0.911133,14.778625,18.503817,-0.137405
0.393088,18:23:18.315,-0.592340,0.006104,0.130676,0.911133,14.778625,18.503817,-0.137405
0.393882,18:23:18.316,-0.074357,0.006104,0.130676,0.911133,14.778625,18.503817,-0.137405
0.394676,18:23:18.317,-0.074357,0.006104,0.130676,0.911133,14.778625,18.503817,-0.137405
0.395471,18:23:18.317,0.947509,0.006104,0.130676,0.911133,14.778625,18.503817,-0.137405
0.396265,18:23:18.318,1.391974,0.006104,0.130676,0.911133,14.778625,18.503817,-0.137405
0.397059,18:23:18.319,1.719280,0.006104,0.130676,0.911133,14.778625,18.503817,-0.137405
0.397853,18:23:18.320,1.999924,0.006104,0.130676,0.911133,14.778625,18.503817,-0.137405
0.398647,18:23:18.321,2.268147,-0.005371,0.131165,0.901306,2.694656,20.534351,0.610687
0.399441,18:23:18.321,2.505486,-0.005371,0.131165,0.901306,2.694656,20.534351,0.610687
0.400235,18:23:18.322,2.494743,-0.005371,0.131165,0.901306,2.694656,20.534351,0.610687
0.401029,18:23:18.323,2.298024,-0.005371,0.131165,0.901306,2.694656,20.534351,0.610687
0.401824,18:23:18.324,1.961318,-0.005371,0.131165,0.901306,2.694656,20.534351,0.610687
0.402618,18:23:18.325,1.487648,-0.005371,0.131165,0.901306,2.694656,20.534351,0.610687
0.403412,18:23:18.325,0.910750,-0.005371,0.131165,0.901306,2.694656,20.534351,0.610687
0.404206,18:23:18.326,0.373968,-0.005371,0.131165,0.901306,2.694656,20.534351,0.610687
0.405000,18:23:18.327,-0.289204,-0.009155,0.127502,0.903809,-3.664122,20.984734,0.938931
0.405794,18:23:18.328,-1.076081,-0.009155,0.127502,0.903809,-3.664122,20.984734,0.938931
0.406588,18:23:18.328,-1.685374,-0.009155,0.127502,0.903809,-3.664122,20.984734,0.938931
0.407382,18:23:18.329,-2.113054,-0.009155,0.127502,0.903809,-3.664122,20.984734,0.938931
0.408176,18:23:18.330,-2.331762,-0.009155,0.127502,0.903809,-3.664122,20.984734,0.938931
0.408971,18:23:18.331,-2.334783,-0.009155,0.127502,0.903809,-3.664122,20.984734,0.938931
0.409765,18:23:18.332,-2.155352,-0.009155,0.127502,0.903809,-3.664122,20.984734,0.938931
0.410559,18:23:18.332,-1.830564,-0.009155,0.127502,0.903809,-3.664122,20.984734,0.938931
0.411353,18:23:18.333,-1.428901,-0.009155,0.127502,0.903809,-3.664122,20.984734,0.938931
0.412147,18:23:18.334,-0.943481,-0.013367,0.113831,0.917358,-14.587787,21.374046,1.465649
0.412941,18:23:18.335,-0.398978,-0.013367,0.113831,0.917358,-14.587787,21.374046,1.465649
0.413735,18:23:18.336,0.083757,-0.013367,0.113831,0.917358,-14.587787,21.374046,1.465649
0.414529,18:23:18.336,0.498009,-0.013367,0.113831,0.917358,-14.587787,21.374046,1.465649
0.415324,18:23:18.337,1.013642,-0.013367,0.113831,0.917358,-14.587787,21.374046,1.465649
0.416118,18:23:18.338,1.456092,-0.013367,0.113831,0.917358,-14.587787,21.374046,1.465649
0.416912,18:23:18.339,1.749828,-0.013367,0.113831,0.917358,-14.587787,21.374046,1.465649
0.417706,18:23:18.340,2.000259,-0.013367,0.113831,0.917358,-14.587787,21.374046,1.465649
0.418500,18:23:18.340,2.238941,-0.009766,0.094360,0.933350,-21.366413,21.435114,2.053435
0.419294,18:23:18.341,2.476616,-0.009766,0.094360,0.933350,-21.366413,21.435114,2.053435
0.420088,18:23:18.342,2.487694,-0.009766,0.094360,0.933350,-21.366413,21.435114,2.053435
0.420882,18:23:18.343,2.277211,-0.009766,0.094360,0.933350,-21.366413,21.435114,2.053435
0.421676,18:23:18.344,1.944869,-0.009766,0.094360,0.933350,-21.366413,21.435114,2.053435
0.422471,18:23:18.344,1.474220,-0.009766,0.094360,0.933350,-21.366413,21.435114,2.053435
0.423265,18:23:18.345,0.885908,-0.009766,0.094360,0.933350,-21.366413,21.435114,2.053435
0.424059,18:23:18.346,0.334691,-0.009766,0.094360,0.933350,-21.366413,21.435114,2.053435
0.424853,18:23:18.347,-0.290547,-0.009766,0.094360,0.933350,-21.366413,21.435114,2.053435
0.425647,18:23:18.348,-1.094545,-0.004517,0.072876,0.955322,-23.190840,21.534351,2.511450
0.426441,18:23:18.348,-1.763256,-0.004517,0.072876,0.955322,-23.190840,21.534351,2.511450
0.427235,18:23:18.349,-2.232731,-0.004517,0.072876,0.955322,-23.190840,21.534351,2.511450
0.428029,18:23:18.350,-2.492729,-0.004517,0.072876,0.955322,-23.190840,21.534351,2.511450
0.428824,18:23:18.351,-2.515221,-0.004517,0.072876,0.955322,-23.190840,21.534351,2.511450
0.429618,18:23:18.352,-2.390509,-0.004517,0.072876,0.955322,-23.190840,21.534351,2.511450
0.430412,18:23:18.352,-2.080491,-0.004517,0.072876,0.955322,-23.190840,21.534351,2.511450
0.431206,18:23:18.353,-1.682017,-0.004517,0.072876,0.955322,-23.190840,21.534351,2.511450
0.432000,18:23:18.354,-1.218418,0.002686,0.050110,0.974243,-19.419847,21.725191,2.526718
0.432794,18:23:18.355,-0.692042,0.002686,0.050110,0.974243,-19.419847,21.725191,2.526718
0.433588,18:23:18.355,-0.190341,0.002686,0.050110,0.974243,-19.419847,21.725191,2.526718
0.434382,18:23:18.356,0.223239,0.002686,0.050110,0.974243,-19.419847,21.725191,2.526718
0.435176,18:23:18.357,0.730983,0.002686,0.050110,0.974243,-19.419847,21.725191,2.526718
0.435971,18:23:18.358,1.199954,0.002686,0.050110,0.974243,-19.419847,21.725191,2.526718
0.436765,18:23:18.359,1.491005,0.002686,0.050110,0.974243,-19.419847,21.725191,2.526718
0.437559,18:23:18.359,1.746136,0.002686,0.050110,0.974243,-19.419847,21.725191,2.526718
0.438353,18:23:18.360,1.971054,0.002686,0.050110,0.974243,-19.419847,21.725191,2.526718
0.439147,18:23:18.361,2.218128,0.006104,0.035400,0.984741,-10.541985,21.572519,2.175573
0.439941,18:23:18.362,2.285939,0.006104,0.035400,0.984741,-10.541985,21.572519,2.175573
0.440735,18:23:18.363,2.099626,0.006104,0.035400,0.984741,-10.541985,21.572519,2.175573
0.441529,18:23:18.363,1.770642,0.006104,0.035400,0.984741,-10.541985,21.572519,2.175573
0.442324,18:23:18.364,1.341619,0.006104,0.035400,0.984741,-10.541985,21.572519,2.175573
0.443118,18:23:18.365,0.761532,0.006104,0.035400,0.984741,-10.541985,21.572519,2.175573
0.443912,18:23:18.366,0.188159,0.006104,0.035400,0.984741,-10.541985,21.572519,2.175573
0.444706,18:23:18.367,-0.397971,0.006104,0.035400,0.984741,-10.541985,21.572519,2.175573
0.445500,18:23:18.367,-1.183169,0.004028,0.033752,0.985046,0.748092,19.534351,1.183206
0.446294,18:23:18.368,-1.863966,0.004028,0.033752,0.985046,0.748092,19.534351,1.183206
0.447088,18:23:18.369,-2.362310,0.004028,0.033752,0.985046,0.748092,19.534351,1.183206
0.447882,18:23:18.370,-2.674174,0.004028,0.033752,0.985046,0.748092,19.534351,1.183206
0.448676,18:23:18.371,-2.726543,0.004028,0.033752,0.985046,0.748092,19.534351,1.183206
0.449471,18:23:18.371,-2.580346,0.004028,0.033752,0.985046,0.748092,19.534351,1.183206
0.450265,18:23:18.372,-2.278889,0.004028,0.033752,0.985046,0.748092,19.534351,1.183206
0.451059,18:23:18.373,-1.860609,0.004028,0.033752,0.985046,0.748092,19.534351,1.183206
0.451853,18:23:18.374,-1.374182,0.004028,0.033752,0.985046,0.748092,19.534351,1.183206
0.452647,18:23:18.375,-0.827329,-0.001038,0.040833,0.979980,11.297709,16.847328,0.274809
0.453441,18:23:18.375,-0.280476,-0.001038,0.040833,0.979980,11.297709,16.847328,0.274809
0.454235,18:23:18.376,0.154925,-0.001038,0.040833,0.979980,11.297709,16.847328,0.274809
0.455029,18:23:18.377,0.642023,-0.001038,0.040833,0.979980,11.297709,16.847328,0.274809
0.455824,18:23:18.378,1.151949,-0.001038,0.040833,0.979980,11.297709,16.847328,0.274809
0.456618,18:23:18.379,1.492683,-0.001038,0.040833,0.979980,11.297709,16.847328,0.274809
0.457412,18:23:18.379,1.749157,-0.001038,0.040833,0.979980,11.297709,16.847328,0.274809
0.458206,18:23:18.380,1.999252,-0.001038,0.040833,0.979980,11.297709,16.847328,0.274809
0.459000,18:23:18.381,2.267811,-0.008911,0.056213,0.966431,19.297710,14.900764,-0.412214
0.459794,18:23:18.382,2.381277,-0.008911,0.056213,0.966431,19.297710,14.900764,-0.412214
0.460588,18:23:18.382,2.206043,-0.008911,0.056213,0.966431,19.297710,14.900764,-0.412214
0.461382,18:23:18.383,1.876890,-0.008911,0.056213,0.966431,19.297710,14.900764,-0.412214
0.462176,18:23:18.384,1.419165,-0.008911,0.056213,0.966431,19.297710,14.900764,-0.412214
0.462971,18:23:18.385,0.837736,-0.008911,0.056213,0.966431,19.297710,14.900764,-0.412214
0.463765,18:23:18.386,0.212833,-0.008911,0.056213,0.966431,19.297710,14.900764,-0.412214
0.464559,18:23:18.386,-0.391928,-0.008911,0.056213,0.966431,19.297710,14.900764,-0.412214
0.465353,18:23:18.387,-1.170413,-0.008911,0.056213,0.966431,19.297710,14.900764,-0.412214
0.466147,18:23:18.388,-1.912306,-0.008606,0.073242,0.954224,23.076336,14.442748,-0.358779
0.466941,18:23:18.389,-2.470069,-0.008606,0.073242,0.954224,23.076336,14.442748,-0.358779
0.467735,18:23:18.390,-2.863172,-0.008606,0.073242,0.954224,23.076336,14.442748,-0.358779
0.468529,18:23:18.390,-2.991577,-0.008606,0.073242,0.954224,23.076336,14.442748,-0.358779
0.469324,18:23:18.391,-2.889525,-0.008606,0.073242,0.954224,23.076336,14.442748,-0.358779
0.470118,18:23:18.392,-2.610559,-0.008606,0.073242,0.954224,23.076336,14.442748,-0.358779
0.470912,18:23:18.393,-2.225177,-0.008606,0.073242,0.954224,23.076336,14.442748,-0.358779
0.471706,18:23:18.394,-1.755535,-0.008606,0.073242,0.954224,23.076336,14.442748,-0.358779
0.472500,18:23:18.394,-1.181323,-0.006592,0.087891,0.939514,22.648855,14.847328,-0.190840
0.473294,18:23:18.395,-0.577234,-0.006592,0.087891,0.939514,22.648855,14.847328,-0.190840
0.474088,18:23:18.396,-0.105577,-0.006592,0.087891,0.939514,22.648855,14.847328,-0.190840
0.474882,18:23:18.397,0.405020,-0.006592,0.087891,0.939514,22.648855,14.847328,-0.190840
0.475676,18:23:18.398,0.989303,-0.006592,0.087891,0.939514,22.648855,14.847328,-0.190840
0.476471,18:23:18.398,1.426551,-0.006592,0.087891,0.939514,22.648855,14.847328,-0.190840
0.477265,18:23:18.399,1.757214,-0.006592,0.087891,0.939514,22.648855,14.847328,-0.190840
0.478059,18:23:18.400,2.042054,-0.006592,0.087891,0.939514,22.648855,14.847328,-0.190840
0.478853,18:23:18.401,2.365164,-0.006592,0.087891,0.939514,22.648855,14.847328,-0.190840
0.479647,18:23:18.402,2.596796,-0.006409,0.098694,0.925720,18.244274,15.251908,0.145038
0.480441,18:23:18.402,2.546273,-0.006409,0.098694,0.925720,18.244274,15.251908,0.145038
0.481235,18:23:18.403,2.326894,-0.006409,0.098694,0.925720,18.244274,15.251908,0.145038
0.482029,18:23:18.404,1.990524,-0.006409,0.098694,0.925720,18.244274,15.251908,0.145038
0.482824,18:23:18.405,1.513832,-0.006409,0.098694,0.925720,18.244274,15.251908,0.145038
0.483618,18:23:18.406,0.967987,-0.006409,0.098694,0.925720,18.244274,15.251908,0.145038
0.484412,18:23:18.406,0.457725,-0.006409,0.098694,0.925720,18.244274,15.251908,0.145038
0.485206,18:23:18.407,-0.239521,-0.006409,0.098694,0.925720,18.244274,15.251908,0.145038
0.486000,18:23:18.408,-0.967987,-0.002197,0.107544,0.920349,11.427481,16.106871,0.625954
0.486794,18:23:18.409,-1.520211,-0.002197,0.107544,0.920349,11.427481,16.106871,0.625954
0.487588,18:23:18.409,-1.929091,-0.002197,0.107544,0.920349,11.427481,16.106871,0.625954
0.488382,18:23:18.410,-2.110369,-0.002197,0.107544,0.920349,11.427481,16.106871,0.625954
0.489176,18:23:18.411,-2.079820,-0.002197,0.107544,0.920349,11.427481,16.106871,0.625954
0.489971,18:23:18.412,-1.861448,-0.002197,0.107544,0.920349,11.427481,16.106871,0.625954
0.490765,18:23:18.413,-1.528435,-0.002197,0.107544,0.920349,11.427481,16.106871,0.625954
0.491559,18:23:18.413,-1.120058,-0.002197,0.107544,0.920349,11.427481,16.106871,0.625954
0.492353,18:23:18.414,-0.639673,-0.002197,0.107544,0.920349,11.427481,16.106871,0.625954
0.493147,18:23:18.415,-0.093828,0.002686,0.108337,0.923401,4.305344,17.450382,0.580153
0.493941,18:23:18.416,0.331502,0.002686,0.108337,0.923401,4.305344,17.450382,0.580153
0.494735,18:23:18.417,0.718563,0.002686,0.108337,0.923401,4.305344,17.450382,0.580153
0.495529,18:23:18.417,1.206668,0.002686,0.108337,0.923401,4.305344,17.450382,0.580153
0.496324,18:23:18.418,1.595743,0.002686,0.108337,0.923401,4.305344,17.450382,0.580153
0.497118,18:23:18.419,1.845502,0.002686,0.108337,0.923401,4.305344,17.450382,0.580153
0.497912,18:23:18.420,2.067399,0.002686,0.108337,0.923401,4.305344,17.450382,0.580153
0.498706,18:23:18.421,2.301381,0.002686,0.108337,0.923401,4.305344,17.450382,0.580153
0.499500,18:23:18.421,2.502632,0.000793,0.102905,0.926392,-1.893130,18.893129,0.793893
0.500294,18:23:18.422,2.446067,0.000793,0.102905,0.926392,-1.893130,18.893129,0.793893
0.501088,18:23:18.423,2.168276,0.000793,0.102905,0.926392,-1.893130,18.893129,0.793893
0.501882,18:23:18.424,1.787091,0.000793,0.102905,0.926392,-1.893130,18.893129,0.793893
0.502676,18:23:18.425,1.289921,0.000793,0.102905,0.926392,-1.893130,18.893129,0.793893
0.503471,18:23:18.425,0.737530,0.000793,0.102905,0.926392,-1.893130,18.893129,0.793893
0.504265,18:23:18.426,0.198566,0.000793,0.102905,0.926392,-1.893130,18.893129,0.793893
0.505059,18:23:18.427,-0.452354,0.000793,0.102905,0.926392,-1.893130,18.893129,0.793893
0.505853,18:23:18.428,-0.452354,0.000793,0.102905,0.926392,-1.893130,18.893129,0.793893
0.506647,18:23:18.429,-1.742107,0.003296,0.102539,0.934021,-4.274809,19.312977,0.847328
0.507441,18:23:18.429,-2.162066,0.003296,0.102539,0.934021,-4.274809,19.312977,0.847328
0.508235,18:23:18.430,-2.380941,0.003296,0.102539,0.934021,-4.274809,19.312977,0.847328
0.509029,18:23:18.431,-2.366842,0.003296,0.102539,0.934021,-4.274809,19.312977,0.847328
0.509824,18:23:18.432,-2.160388,0.003296,0.102539,0.934021,-4.274809,19.312977,0.847328
0.510618,18:23:18.433,-1.836103,0.003296,0.102539,0.934021,-4.274809,19.312977,0.847328
0.511412,18:23:18.433,-1.434440,0.003296,0.102539,0.934021,-4.274809,19.312977,0.847328
0.512206,18:23:18.434,-0.962615,0.003296,0.102539,0.934021,-4.274809,19.312977,0.847328
0.513000,18:23:18.435,-0.451514,0.005798,0.091003,0.944580,-7.183206,20.068703,1.190840
0.513794,18:23:18.436,-0.451514,0.005798,0.091003,0.944580,-7.183206,20.068703,1.190840
0.514588,18:23:18.436,0.332174,0.005798,0.091003,0.944580,-7.183206,20.068703,1.190840
0.515382,18:23:18.437,0.787213,0.005798,0.091003,0.944580,-7.183206,20.068703,1.190840
0.516176,18:23:18.438,1.162020,0.005798,0.091003,0.944580,-7.183206,20.068703,1.190840
0.516971,18:23:18.439,1.403052,0.005798,0.091003,0.944580,-7.183206,20.068703,1.190840
0.517765,18:23:18.440,1.602457,0.005798,0.091003,0.944580,-7.183206,20.068703,1.190840
0.518559,18:23:18.440,1.838788,0.005798,0.091003,0.944580,-7.183206,20.068703,1.190840
0.519353,18:23:18.441,2.048936,0.005798,0.091003,0.944580,-7.183206,20.068703,1.190840
0.520147,18:23:18.442,2.028458,-0.000977,0.083496,0.955078,-7.030534,20.152672,1.206107
0.520941,18:23:18.443,1.805554,-0.000977,0.083496,0.955078,-7.030534,20.152672,1.206107
0.521735,18:23:18.444,1.441993,-0.000977,0.083496,0.955078,-7.030534,20.152672,1.206107
0.522529,18:23:18.444,1.441993,-0.000977,0.083496,0.955078,-7.030534,20.152672,1.206107
0.523324,18:23:18.445,0.434226,-0.000977,0.083496,0.955078,-7.030534,20.152672,1.206107
0.524118,18:23:18.446,-0.086107,-0.000977,0.083496,0.955078,-7.030534,20.152672,1.206107
0.524912,18:23:18.447,-0.686336,-0.000977,0.083496,0.955078,-7.030534,20.152672,1.206107
0.525706,18:23:18.448,-1.381903,-0.000977,0.083496,0.955078,-7.030534,20.152672,1.206107
0.526500,18:23:18.448,-1.949569,-0.001099,0.074768,0.957764,-4.702290,20.221375,1.122137
0.527294,18:23:18.449,-2.369863,-0.001099,0.074768,0.957764,-4.702290,20.221375,1.122137
0.528088,18:23:18.450,-2.597635,-0.001099,0.074768,0.957764,-4.702290,20.221375,1.122137
0.528882,18:23:18.451,-2.587060,-0.001099,0.074768,0.957764,-4.702290,20.221375,1.122137
0.529676,18:23:18.452,-2.361471,-0.001099,0.074768,0.957764,-4.702290,20.221375,1.122137
0.530471,18:23:18.452,-2.361471,-0.001099,0.074768,0.957764,-4.702290,20.221375,1.122137
0.531265,18:23:18.453,-1.521721,-0.001099,0.074768,0.957764,-4.702290,20.221375,1.122137
0.532059,18:23:18.454,-0.992493,-0.001099,0.074768,0.957764,-4.702290,20.221375,1.122137
0.532853,18:23:18.455,-0.385550,-0.001099,0.074768,0.957764,-4.702290,20.221375,1.122137
0.533647,18:23:18.456,0.166339,-0.005493,0.071960,0.958435,-1.435115,19.877863,0.839695
0.534441,18:23:18.456,0.567163,-0.005493,0.071960,0.958435,-1.435115,19.877863,0.839695
0.535235,18:23:18.457,1.040162,-0.005493,0.071960,0.958435,-1.435115,19.877863,0.839695
0.536029,18:23:18.458,1.508461,-0.005493,0.071960,0.958435,-1.435115,19.877863,0.839695
0.536824,18:23:18.459,1.824521,-0.005493,0.071960,0.958435,-1.435115,19.877863,0.839695
0.537618,18:23:18.460,2.029801,-0.005493,0.071960,0.958435,-1.435115,19.877863,0.839695
0.538412,18:23:18.460,2.244648,-0.005493,0.071960,0.958435,-1.435115,19.877863,0.839695
0.539206,18:23:18.461,2.244648,-0.005493,0.071960,0.958435,-1.435115,19.877863,0.839695
0.540000,18:23:18.462,2.475608,-0.005493,0.071960,0.958435,-1.435115,19.877863,0.839695
0.540794,18:23:18.463,2.210575,-0.005737,0.066772,0.956421,1.862595,18.770992,0.763359
0.541588,18:23:18.463,1.795483,-0.005737,0.066772,0.956421,1.862595,18.770992,0.763359
0.542382,18:23:18.464,1.280522,-0.005737,0.066772,0.956421,1.862595,18.770992,0.763359
0.543176,18:23:18.465,0.668376,-0.005737,0.066772,0.956421,1.862595,18.770992,0.763359
0.543971,18:23:18.466,0.056229,-0.005737,0.066772,0.956421,1.862595,18.770992,0.763359
0.544765,18:23:18.467,-0.608453,-0.005737,0.066772,0.956421,1.862595,18.770992,0.763359
0.545559,18:23:18.467,-1.400366,-0.005737,0.066772,0.956421,1.862595,18.770992,0.763359
0.546353,18:23:18.468,-2.072770,-0.005737,0.066772,0.956421,1.862595,18.770992,0.763359
0.547147,18:23:18.469,-2.072770,-0.002930,0.066772,0.955688,4.694656,17.541985,0.816794
0.547941,18:23:18.470,-2.962371,-0.002930,0.066772,0.955688,4.694656,17.541985,0.816794
0.548735,18:23:18.471,-3.053849,-0.002930,0.066772,0.955688,4.694656,17.541985,0.816794
0.549529,18:23:18.471,-2.938872,-0.002930,0.066772,0.955688,4.694656,17.541985,0.816794
0.550324,18:23:18.472,-2.598474,-0.002930,0.066772,0.955688,4.694656,17.541985,0.816794
0.551118,18:23:18.473,-2.180865,-0.002930,0.066772,0.955688,4.694656,17.541985,0.816794
0.551912,18:23:18.474,-1.676982,-0.002930,0.066772,0.955688,4.694656,17.541985,0.816794
0.552706,18:23:18.475,-1.062486,-0.002930,0.066772,0.955688,4.694656,17.541985,0.816794
0.553500,18:23:18.475,-0.466117,-0.003357,0.070679,0.952637,6.900764,17.053434,0.984733
0.554294,18:23:18.476,-0.024338,-0.003357,0.070679,0.952637,6.900764,17.053434,0.984733
0.555088,18:23:18.477,0.483238,-0.003357,0.070679,0.952637,6.900764,17.053434,0.984733
0.555882,18:23:18.478,0.483238,-0.003357,0.070679,0.952637,6.900764,17.053434,0.984733
0.556676,18:23:18.479,1.422858,-0.003357,0.070679,0.952637,6.900764,17.053434,0.984733
0.557471,18:23:18.479,1.727001,-0.003357,0.070679,0.952637,6.900764,17.053434,0.984733
0.558265,18:23:18.480,2.006638,-0.003357,0.070679,0.952637,6.900764,17.053434,0.984733
0.559059,18:23:18.481,2.348379,-0.003357,0.070679,0.952637,6.900764,17.053434,0.984733
0.559853,18:23:18.482,2.509346,-0.003357,0.070679,0.952637,6.900764,17.053434,0.984733
0.560647,18:23:18.483,2.380606,-0.000244,0.072693,0.950134,7.687023,17.259542,0.595420
0.561441,18:23:18.483,2.044907,-0.000244,0.072693,0.950134,7.687023,17.259542,0.595420
0.562235,18:23:18.484,1.609171,-0.000244,0.072693,0.950134,7.687023,17.259542,0.595420
0.563029,18:23:18.485,1.091524,-0.000244,0.072693,0.950134,7.687023,17.259542,0.595420
0.563824,18:23:18.486,1.091524,-0.000244,0.072693,0.950134,7.687023,17.259542,0.595420
0.564618,18:23:18.487,-0.043137,-0.000244,0.072693,0.950134,7.687023,17.259542,0.595420
0.565412,18:23:18.487,-0.800641,-0.000244,0.072693,0.950134,7.687023,17.259542,0.595420
0.566206,18:23:18.488,-1.454749,-0.000244,0.072693,0.950134,7.687023,17.259542,0.595420
0.567000,18:23:18.489,-1.969375,0.001953,0.077881,0.945557,7.770992,17.572519,0.396947
0.567794,18:23:18.490,-2.367010,0.001953,0.077881,0.945557,7.770992,17.572519,0.396947
0.568588,18:23:18.490,-2.516060,0.001953,0.077881,0.945557,7.770992,17.572519,0.396947
0.569382,18:23:18.491,-2.428946,0.001953,0.077881,0.945557,7.770992,17.572519,0.396947
0.570176,18:23:18.492,-2.134203,0.001953,0.077881,0.945557,7.770992,17.572519,0.396947
0.570971,18:23:18.493,-1.743618,0.001953,0.077881,0.945557,7.770992,17.572519,0.396947
0.571765,18:23:18.494,-1.290257,0.001953,0.077881,0.945557,7.770992,17.572519,0.396947
0.572559,18:23:18.494,-1.290257,0.001953,0.077881,0.945557,7.770992,17.572519,0.396947
0.573353,18:23:18.495,-0.138476,0.001953,0.077881,0.945557,7.770992,17.572519,0.396947
0.574147,18:23:18.496,0.285512,-0.004517,0.077637,0.942688,7.015267,18.015266,0.580153
0.574941,18:23:18.497,0.700771,-0.004517,0.077637,0.942688,7.015267,18.015266,0.580153
0.575735,18:23:18.498,1.194919,-0.004517,0.077637,0.942688,7.015267,18.015266,0.580153
0.576529,18:23:18.498,1.569223,-0.004517,0.077637,0.942688,7.015267,18.015266,0.580153
0.577324,18:23:18.499,1.825696,-0.004517,0.077637,0.942688,7.015267,18.015266,0.580153
0.578118,18:23:18.500,2.047257,-0.004517,0.077637,0.942688,7.015267,18.015266,0.580153
0.578912,18:23:18.501,2.338979,-0.004517,0.077637,0.942688,7.015267,18.015266,0.580153
0.579706,18:23:18.502,2.501457,-0.004517,0.077637,0.942688,7.015267,18.015266,0.580153
0.580500,18:23:18.502,2.501457,-0.004517,0.077637,0.942688,7.015267,18.015266,0.580153
0.581294,18:23:18.503,2.044907,-0.006348,0.078979,0.943542,6.122138,17.465649,0.793893
0.582088,18:23:18.504,1.596078,-0.006348,0.078979,0.943542,6.122138,17.465649,0.793893
0.582882,18:23:18.505,1.064668,-0.006348,0.078979,0.943542,6.122138,17.465649,0.793893
0.583676,18:23:18.506,0.512108,-0.006348,0.078979,0.943542,6.122138,17.465649,0.793893
0.584471,18:23:18.506,-0.063279,-0.006348,0.078979,0.943542,6.122138,17.465649,0.793893
0.585265,18:23:18.507,-0.807523,-0.006348,0.078979,0.943542,6.122138,17.465649,0.793893
0.586059,18:23:18.508,-1.473884,-0.006348,0.078979,0.943542,6.122138,17.465649,0.793893
0.586853,18:23:18.509,-2.015366,-0.006348,0.078979,0.943542,6.122138,17.465649,0.793893
0.587647,18:23:18.510,-2.431296,-0.002075,0.084290,0.950012,5.648855,16.954199,0.923664
0.588441,18:23:18.510,-2.627344,-0.002075,0.084290,0.950012,5.648855,16.954199,0.923664
0.589235,18:23:18.511,-2.627344,-0.002075,0.084290,0.950012,5.648855,16.954199,0.923664
0.590029,18:23:18.512,-2.318669,-0.002075,0.084290,0.950012,5.648855,16.954199,0.923664
0.590824,18:23:18.513,-1.919692,-0.002075,0.084290,0.950012,5.648855,16.954199,0.923664
0.591618,18:23:18.514,-1.479255,-0.002075,0.084290,0.950012,5.648855,16.954199,0.923664
0.592412,18:23:18.514,-0.911589,-0.002075,0.084290,0.950012,5.648855,16.954199,0.923664
0.593206,18:23:18.515,-0.270069,-0.002075,0.084290,0.950012,5.648855,16.954199,0.923664
0.594000,18:23:18.516,0.229786,-0.001160,0.084595,0.949036,5.549618,17.366413,0.992366
0.594794,18:23:18.517,0.649073,-0.001160,0.084595,0.949036,5.549618,17.366413,0.992366
0.595588,18:23:18.517,1.167727,-0.001160,0.084595,0.949036,5.549618,17.366413,0.992366
0.596382,18:23:18.518,1.618235,-0.001160,0.084595,0.949036,5.549618,17.366413,0.992366
0.597176,18:23:18.519,1.618235,-0.001160,0.084595,0.949036,5.549618,17.366413,0.992366
0.597971,18:23:18.520,2.181537,-0.001160,0.084595,0.949036,5.549618,17.366413,0.992366
0.598765,18:23:18.521,2.477287,-0.001160,0.084595,0.949036,5.549618,17.366413,0.992366
0.599559,18:23:18.521,2.718318,-0.001160,0.084595,0.949036,5.549618,17.366413,0.992366
0.600353,18:23:18.522,2.662593,-0.001160,0.084595,0.949036,5.549618,17.366413,0.992366
0.601147,18:23:18.523,2.373220,-0.001465,0.085205,0.946472,5.717557,17.961832,0.908397
0.601941,18:23:18.524,1.952255,-0.001465,0.085205,0.946472,5.717557,17.961832,0.908397
0.602735,18:23:18.525,1.426886,-0.001465,0.085205,0.946472,5.717557,17.961832,0.908397
0.603529,18:23:18.525,0.880034,-0.001465,0.085205,0.946472,5.717557,17.961832,0.908397
0.604324,18:23:18.526,0.328145,-0.001465,0.085205,0.946472,5.717557,17.961832,0.908397
0.605118,18:23:18.527,-0.403342,-0.001465,0.085205,0.946472,5.717557,17.961832,0.908397
0.605912,18:23:18.528,-0.403342,-0.001465,0.085205,0.946472,5.717557,17.961832,0.908397
0.606706,18:23:18.529,-1.715587,-0.001465,0.085205,0.946472,5.717557,17.961832,0.908397
0.607500,18:23:18.529,-2.199664,-0.001465,0.085205,0.946472,5.717557,17.961832,0.908397
0.608294,18:23:18.530,-2.476280,0.001282,0.084412,0.946167,5.480916,18.038168,0.862595
0.609088,18:23:18.531,-2.528145,0.001282,0.084412,0.946167,5.480916,18.038168,0.862595
0.609882,18:23:18.532,-2.336629,0.001282,0.084412,0.946167,5.480916,18.038168,0.862595
0.610676,18:23:18.533,-1.990188,0.001282,0.084412,0.946167,5.480916,18.038168,0.862595
0.611471,18:23:18.533,-1.594400,0.001282,0.084412,0.946167,5.480916,18.038168,0.862595
0.612265,18:23:18.534,-1.115694,0.001282,0.084412,0.946167,5.480916,18.038168,0.862595
0.613059,18:23:18.535,-0.510765,0.001282,0.084412,0.946167,5.480916,18.038168,0.862595
0.613853,18:23:18.536,-0.510765,0.001282,0.084412,0.946167,5.480916,18.038168,0.862595
0.614647,18:23:18.537,0.352987,-0.001892,0.084778,0.944214,4.587786,17.961832,0.793893
0.615441,18:23:18.537,0.822629,-0.001892,0.084778,0.944214,4.587786,17.961832,0.793893
0.616235,18:23:18.538,1.251316,-0.001892,0.084778,0.944214,4.587786,17.961832,0.793893
0.617029,18:23:18.539,1.578958,-0.001892,0.084778,0.944214,4.587786,17.961832,0.793893
0.617824,18:23:18.540,1.818479,-0.001892,0.084778,0.944214,4.587786,17.961832,0.793893
0.618618,18:23:18.541,2.078477,-0.001892,0.084778,0.944214,4.587786,17.961832,0.793893
0.619412,18:23:18.541,2.344182,-0.001892,0.084778,0.944214,4.587786,17.961832,0.793893
0.620206,18:23:18.542,2.340993,-0.001892,0.084778,0.944214,4.587786,17.961832,0.793893
0.621000,18:23:18.543,2.104494,-0.004089,0.084290,0.945190,3.793893,18.221375,0.656489
0.621794,18:23:18.544,1.694942,-0.004089,0.084290,0.945190,3.793893,18.221375,0.656489
0.622588,18:23:18.544,1.694942,-0.004089,0.084290,0.945190,3.793893,18.221375,0.656489
0.623382,18:23:18.545,0.669551,-0.004089,0.084290,0.945190,3.793893,18.221375,0.656489
0.624176,18:23:18.546,0.156939,-0.004089,0.084290,0.945190,3.793893,18.221375,0.656489
0.624971,18:23:18.547,-0.532250,-0.004089,0.084290,0.945190,3.793893,18.221375,0.656489
0.625765,18:23:18.548,-1.275151,-0.004089,0.084290,0.945190,3.793893,18.221375,0.656489
0.626559,18:23:18.548,-1.819318,-0.004089,0.084290,0.945190,3.793893,18.221375,0.656489
0.627353,18:23:18.549,-2.293324,-0.004089,0.084290,0.945190,3.793893,18.221375,0.656489
0.628147,18:23:18.550,-2.596628,-0.003540,0.080322,0.948242,3.244275,18.129770,0.641221
0.628941,18:23:18.551,-2.677867,-0.003540,0.080322,0.948242,3.244275,18.129770,0.641221
0.629735,18:23:18.552,-2.506493,-0.003540,0.080322,0.948242,3.244275,18.129770,0.641221
0.630529,18:23:18.552,-2.506493,-0.003540,0.080322,0.948242,3.244275,18.129770,0.641221
0.631324,18:23:18.553,-1.738415,-0.003540,0.080322,0.948242,3.244275,18.129770,0.641221
0.632118,18:23:18.554,-1.290593,-0.003540,0.080322,0.948242,3.244275,18.129770,0.641221
0.632912,18:23:18.555,-0.699763,-0.003540,0.080322,0.948242,3.244275,18.129770,0.641221
0.633706,18:23:18.556,-0.173388,-0.003540,0.080322,0.948242,3.244275,18.129770,0.641221
0.634500,18:23:18.556,0.186481,-0.002563,0.082153,0.950134,3.000000,17.946566,0.694656
0.635294,18:23:18.557,0.618189,-0.002563,0.082153,0.950134,3.000000,17.946566,0.694656
0.636088,18:23:18.558,1.042847,-0.002563,0.082153,0.950134,3.000000,17.946566,0.694656
0.636882,18:23:18.559,1.380224,-0.002563,0.082153,0.950134,3.000000,17.946566,0.694656
0.637676,18:23:18.560,1.597086,-0.002563,0.082153,0.950134,3.000000,17.946566,0.694656
0.638471,18:23:18.560,1.823850,-0.002563,0.082153,0.950134,3.000000,17.946566,0.694656
0.639265,18:23:18.561,1.823850,-0.002563,0.082153,0.950134,3.000000,17.946566,0.694656
0.640059,18:23:18.562,2.106676,-0.002563,0.082153,0.950134,3.000000,17.946566,0.694656
0.640853,18:23:18.563,1.889143,-0.002563,0.082153,0.950134,3.000000,17.946566,0.694656
0.641647,18:23:18.564,1.492348,-0.000793,0.078857,0.945801,2.931298,17.916031,0.832061
0.642441,18:23:18.564,0.991485,-0.000793,0.078857,0.945801,2.931298,17.916031,0.832061
0.643235,18:23:18.565,0.483238,-0.000793,0.078857,0.945801,2.931298,17.916031,0.832061
0.644029,18:23:18.566,0.000504,-0.000793,0.078857,0.945801,2.931298,17.916031,0.832061
0.644824,18:23:18.567,-0.607111,-0.000793,0.078857,0.945801,2.931298,17.916031,0.832061
0.645618,18:23:18.568,-1.333562,-0.000793,0.078857,0.945801,2.931298,17.916031,0.832061
0.646412,18:23:18.568,-1.865309,-0.000793,0.078857,0.945801,2.931298,17.916031,0.832061
0.647206,18:23:18.569,-1.865309,-0.000793,0.078857,0.945801,2.931298,17.916031,0.832061
0.648000,18:23:18.570,-2.560204,-0.000793,0.078857,0.945801,2.931298,17.916031,0.832061
0.648794,18:23:18.571,-2.617609,-0.000732,0.077881,0.950378,2.900763,17.610687,0.816794
0.649588,18:23:18.571,-2.448417,-0.000732,0.077881,0.950378,2.900763,17.610687,0.816794
0.650382,18:23:18.572,-2.020401,-0.000732,0.077881,0.950378,2.900763,17.610687,0.816794
0.651176,18:23:18.573,-1.525078,-0.000732,0.077881,0.950378,2.900763,17.610687,0.816794
0.651971,18:23:18.574,-1.005585,-0.000732,0.077881,0.950378,2.900763,17.610687,0.816794
0.652765,18:23:18.575,-0.372961,-0.000732,0.077881,0.950378,2.900763,17.610687,0.816794
0.653559,18:23:18.575,0.271748,-0.000732,0.077881,0.950378,2.900763,17.610687,0.816794
0.654353,18:23:18.576,0.723598,-0.000732,0.077881,0.950378,2.900763,17.610687,0.816794
0.655147,18:23:18.577,1.155306,0.000671,0.076477,0.948669,3.351145,17.816793,0.725191
0.655941,18:23:18.578,1.155306,0.000671,0.076477,0.948669,3.351145,17.816793,0.725191
0.656735,18:23:18.579,1.972396,0.000671,0.076477,0.948669,3.351145,17.816793,0.725191
0.657529,18:23:18.579,2.248173,0.000671,0.076477,0.948669,3.351145,17.816793,0.725191
0.658324,18:23:18.580,2.444388,0.000671,0.076477,0.948669,3.351145,17.816793,0.725191
0.659118,18:23:18.581,2.715969,0.000671,0.076477,0.948669,3.351145,17.816793,0.725191
0.659912,18:23:18.582,2.785290,0.000671,0.076477,0.948669,3.351145,17.816793,0.725191
0.660706,18:23:18.583,2.580682,0.000671,0.076477,0.948669,3.351145,17.816793,0.725191
0.661500,18:23:18.583,2.166430,-0.000366,0.076477,0.947388,3.778626,18.549618,0.801527
0.662294,18:23:18.584,1.614542,-0.000366,0.076477,0.947388,3.778626,18.549618,0.801527
0.663088,18:23:18.585,1.011627,-0.000366,0.076477,0.947388,3.778626,18.549618,0.801527
0.663882,18:23:18.586,1.011627,-0.000366,0.076477,0.947388,3.778626,18.549618,0.801527
0.664676,18:23:18.587,-0.191180,-0.000366,0.076477,0.947388,3.778626,18.549618,0.801527
0.665471,18:23:18.587,-1.023377,-0.000366,0.076477,0.947388,3.778626,18.549618,0.801527
0.666265,18:23:18.588,-1.678325,-0.000366,0.076477,0.947388,3.778626,18.549618,0.801527
0.667059,18:23:18.589,-2.215106,-0.000366,0.076477,0.947388,3.778626,18.549618,0.801527
0.667853,18:23:18.590,-2.642451,-0.000366,0.076477,0.947388,3.778626,18.549618,0.801527
0.668647,18:23:18.591,-2.835142,-0.003601,0.076721,0.948669,3.809160,18.740458,0.824427
0.669441,18:23:18.591,-2.803586,-0.003601,0.076721,0.948669,3.809160,18.740458,0.824427
0.670235,18:23:18.592,-2.506828,-0.003601,0.076721,0.948669,3.809160,18.740458,0.824427
0.671029,18:23:18.593,-2.084855,-0.003601,0.076721,0.948669,3.809160,18.740458,0.824427
0.671824,18:23:18.594,-1.628977,-0.003601,0.076721,0.948669,3.809160,18.740458,0.824427
0.672618,18:23:18.595,-1.628977,-0.003601,0.076721,0.948669,3.809160,18.740458,0.824427
0.673412,18:23:18.595,-0.430198,-0.003601,0.076721,0.948669,3.809160,18.740458,0.824427
0.674206,18:23:18.596,0.046494,-0.003601,0.076721,0.948669,3.809160,18.740458,0.824427
0.675000,18:23:18.597,0.482231,-0.004333,0.077515,0.946960,4.129771,18.122137,0.717557
0.675794,18:23:18.598,0.963455,-0.004333,0.077515,0.946960,4.129771,18.122137,0.717557
0.676588,18:23:18.598,1.393317,-0.004333,0.077515,0.946960,4.129771,18.122137,0.717557
0.677382,18:23:18.599,1.740597,-0.004333,0.077515,0.946960,4.129771,18.122137,0.717557
0.678176,18:23:18.600,2.007813,-0.004333,0.077515,0.946960,4.129771,18.122137,0.717557
0.678971,18:23:18.601,2.328237,-0.004333,0.077515,0.946960,4.129771,18.122137,0.717557
0.679765,18:23:18.602,2.506157,-0.004333,0.077515,0.946960,4.129771,18.122137,0.717557
0.680559,18:23:18.602,2.506157,-0.004333,0.077515,0.946960,4.129771,18.122137,0.717557
0.681353,18:23:18.603,2.129503,-0.004333,0.077515,0.946960,4.129771,18.122137,0.717557
0.682147,18:23:18.604,1.663554,-0.004578,0.076782,0.952209,4.427481,17.572519,0.732824
0.682941,18:23:18.605,1.124422,-0.004578,0.076782,0.952209,4.427481,17.572519,0.732824
0.683735,18:23:18.606,0.660822,-0.004578,0.076782,0.952209,4.427481,17.572519,0.732824
0.684529,18:23:18.606,0.131762,-0.004578,0.076782,0.952209,4.427481,17.572519,0.732824
0.685324,18:23:18.607,-0.627924,-0.004578,0.076782,0.952209,4.427481,17.572519,0.732824
0.686118,18:23:18.608,-1.297978,-0.004578,0.076782,0.952209,4.427481,17.572519,0.732824
0.686912,18:23:18.609,-1.790616,-0.004578,0.076782,0.952209,4.427481,17.572519,0.732824
0.687706,18:23:18.610,-2.205035,-0.004578,0.076782,0.952209,4.427481,17.572519,0.732824
0.688500,18:23:18.610,-2.423407,-0.000916,0.077026,0.952087,5.083970,17.412214,1.000000
0.689294,18:23:18.611,-2.423407,-0.000916,0.077026,0.952087,5.083970,17.412214,1.000000
0.690088,18:23:18.612,-2.192447,-0.000916,0.077026,0.952087,5.083970,17.412214,1.000000
0.690882,18:23:18.613,-1.790784,-0.000916,0.077026,0.952087,5.083970,17.412214,1.000000
0.691676,18:23:18.614,-1.367803,-0.000916,0.077026,0.952087,5.083970,17.412214,1.000000
0.692471,18:23:18.614,-0.880369,-0.000916,0.077026,0.952087,5.083970,17.412214,1.000000
0.693265,18:23:18.615,-0.292897,-0.000916,0.077026,0.952087,5.083970,17.412214,1.000000
0.694059,18:23:18.616,0.189837,-0.000916,0.077026,0.952087,5.083970,17.412214,1.000000
0.694853,18:23:18.617,0.563134,-0.000916,0.077026,0.952087,5.083970,17.412214,1.000000
0.695647,18:23:18.618,0.969329,-0.000977,0.074707,0.949524,6.152672,17.351145,0.931298
0.696441,18:23:18.618,1.335241,-0.000977,0.074707,0.949524,6.152672,17.351145,0.931298
0.697235,18:23:18.619,1.335241,-0.000977,0.074707,0.949524,6.152672,17.351145,0.931298
0.698029,18:23:18.620,1.841810,-0.000977,0.074707,0.949524,6.152672,17.351145,0.931298
0.698824,18:23:18.621,2.116411,-0.000977,0.074707,0.949524,6.152672,17.351145,0.931298
0.699618,18:23:18.622,2.293996,-0.000977,0.074707,0.949524,6.152672,17.351145,0.931298
0.700412,18:23:18.622,2.186572,-0.000977,0.074707,0.949524,6.152672,17.351145,0.931298
0.701206,18:23:18.623,1.878065,-0.000977,0.074707,0.949524,6.152672,17.351145,0.931298
0.702000,18:23:18.624,1.392309,-0.001648,0.076416,0.950806,6.450382,17.442749,0.961832
0.702794,18:23:18.625,0.824308,-0.001648,0.076416,0.950806,6.450382,17.442749,0.961832
0.703588,18:23:18.625,0.327977,-0.001648,0.076416,0.950806,6.450382,17.442749,0.961832
0.704382,18:23:18.626,-0.168353,-0.001648,0.076416,0.950806,6.450382,17.442749,0.961832
0.705176,18:23:18.627,-0.901518,-0.001648,0.076416,0.950806,6.450382,17.442749,0.961832
0.705971,18:23:18.628,-0.901518,-0.001648,0.076416,0.950806,6.450382,17.442749,0.961832
0.706765,18:23:18.629,-2.078477,-0.001648,0.076416,0.950806,6.450382,17.442749,0.961832
0.707559,18:23:18.629,-2.480308,-0.001648,0.076416,0.950806,6.450382,17.442749,0.961832
0.708353,18:23:18.630,-2.714122,-0.001648,0.076416,0.950806,6.450382,17.442749,0.961832
0.709147,18:23:18.631,-2.744167,-0.002686,0.080933,0.947571,6.793893,17.503817,0.473282
0.709941,18:23:18.632,-2.501289,-0.002686,0.080933,0.947571,6.793893,17.503817,0.473282
0.710735,18:23:18.633,-2.057496,-0.002686,0.080933,0.947571,6.793893,17.503817,0.473282
0.711529,18:23:18.633,-1.575265,-0.002686,0.080933,0.947571,6.793893,17.503817,0.473282
0.712324,18:23:18.634,-1.055100,-0.002686,0.080933,0.947571,6.793893,17.503817,0.473282
0.713118,18:23:18.635,-0.426169,-0.002686,0.080933,0.947571,6.793893,17.503817,0.473282
0.713912,18:23:18.636,-0.426169,-0.002686,0.080933,0.947571,6.793893,17.503817,0.473282
0.714706,18:23:18.637,0.606607,-0.002686,0.080933,0.947571,6.793893,17.503817,0.473282
0.715500,18:23:18.637,1.054597,-0.002686,0.080933,0.947571,6.793893,17.503817,0.473282
0.716294,18:23:18.638,1.448035,-0.001709,0.081848,0.947693,6.526718,17.748091,0.473282
0.717088,18:23:18.639,1.825360,-0.001709,0.081848,0.947693,6.526718,17.748091,0.473282
0.717882,18:23:18.640,2.106676,-0.001709,0.081848,0.947693,6.526718,17.748091,0.473282
0.718676,18:23:18.641,2.373892,-0.001709,0.081848,0.947693,6.526718,17.748091,0.473282
0.719471,18:23:18.641,2.621469,-0.001709,0.081848,0.947693,6.526718,17.748091,0.473282
0.720265,18:23:18.642,2.583368,-0.001709,0.081848,0.947693,6.526718,17.748091,0.473282
0.721059,18:23:18.643,2.333608,-0.001709,0.081848,0.947693,6.526718,17.748091,0.473282
0.721853,18:23:18.644,1.889815,-0.001709,0.081848,0.947693,6.526718,17.748091,0.473282
0.722647,18:23:18.645,1.889815,-0.002380,0.085815,0.946594,6.251908,17.572519,0.519084
0.723441,18:23:18.645,0.791745,-0.002380,0.085815,0.946594,6.251908,17.572519,0.519084
0.724235,18:23:18.646,0.312032,-0.002380,0.085815,0.946594,6.251908,17.572519,0.519084
0.725029,18:23:18.647,-0.394278,-0.002380,0.085815,0.946594,6.251908,17.572519,0.519084
0.725824,18:23:18.648,-1.133822,-0.002380,0.085815,0.946594,6.251908,17.572519,0.519084
0.726618,18:23:18.649,-1.662882,-0.002380,0.085815,0.946594,6.251908,17.572519,0.519084
0.727412,18:23:18.649,-2.122621,-0.002380,0.085815,0.946594,6.251908,17.572519,0.519084
0.728206,18:23:18.650,-2.429618,-0.002380,0.085815,0.946594,6.251908,17.572519,0.519084
0.729000,18:23:18.651,-2.536538,-0.002380,0.088257,0.946228,5.748092,17.587786,0.618321
0.729794,18:23:18.652,-2.370535,-0.002380,0.088257,0.946228,5.748092,17.587786,0.618321
0.730588,18:23:18.652,-2.370535,-0.002380,0.088257,0.946228,5.748092,17.587786,0.618321
0.731382,18:23:18.653,-1.518868,-0.002380,0.088257,0.946228,5.748092,17.587786,0.618321
0.732176,18:23:18.654,-1.044190,-0.002380,0.088257,0.946228,5.748092,17.587786,0.618321
0.732971,18:23:18.655,-0.454032,-0.002380,0.088257,0.946228,5.748092,17.587786,0.618321
0.733765,18:23:18.656,0.111284,-0.002380,0.088257,0.946228,5.748092,17.587786,0.618321
0.734559,18:23:18.656,0.531579,-0.002380,0.088257,0.946228,5.748092,17.587786,0.618321
0.735353,18:23:18.657,0.943816,-0.002380,0.088257,0.946228,5.748092,17.587786,0.618321
0.736147,18:23:18.658,1.304356,-0.003235,0.085693,0.942444,4.549618,17.916031,0.938931
0.736941,18:23:18.659,1.660533,-0.003235,0.085693,0.942444,4.549618,17.916031,0.938931
0.737735,18:23:18.660,1.940169,-0.003235,0.085693,0.942444,4.549618,17.916031,0.938931
0.738529,18:23:18.660,2.175158,-0.003235,0.085693,0.942444,4.549618,17.916031,0.938931
0.739324,18:23:18.661,2.175158,-0.003235,0.085693,0.942444,4.549618,17.916031,0.938931
0.740118,18:23:18.662,2.435660,-0.003235,0.085693,0.942444,4.549618,17.916031,0.938931
0.740912,18:23:18.663,2.219135,-0.003235,0.085693,0.942444,4.549618,17.916031,0.938931
0.741706,18:23:18.664,1.799176,-0.003235,0.085693,0.942444,4.549618,17.916031,0.938931
0.742500,18:23:18.664,1.221775,-0.005493,0.082031,0.941467,2.717557,18.396946,1.038168
0.743294,18:23:18.665,0.669215,-0.005493,0.082031,0.941467,2.717557,18.396946,1.038168
0.744088,18:23:18.666,0.234318,-0.005493,0.082031,0.941467,2.717557,18.396946,1.038168
0.744882,18:23:18.667,-0.379843,-0.005493,0.082031,0.941467,2.717557,18.396946,1.038168
0.745676,18:23:18.668,-1.154971,-0.005493,0.082031,0.941467,2.717557,18.396946,1.038168
0.746471,18:23:18.668,-1.727001,-0.005493,0.082031,0.941467,2.717557,18.396946,1.038168
0.747265,18:23:18.669,-1.727001,-0.005493,0.082031,0.941467,2.717557,18.396946,1.038168
0.748059,18:23:18.670,-2.492729,-0.005493,0.082031,0.941467,2.717557,18.396946,1.038168
0.748853,18:23:18.671,-2.631037,-0.005493,0.082031,0.941467,2.717557,18.396946,1.038168
0.749647,18:23:18.672,-2.526635,-0.002869,0.079834,0.945068,1.312977,18.679390,1.061069
0.750441,18:23:18.672,-2.164248,-0.002869,0.079834,0.945068,1.312977,18.679390,1.061069
0.751235,18:23:18.673,-1.687724,-0.002869,0.079834,0.945068,1.312977,18.679390,1.061069
0.752029,18:23:18.674,-1.206332,-0.002869,0.079834,0.945068,1.312977,18.679390,1.061069
0.752824,18:23:18.675,-0.627420,-0.002869,0.079834,0.945068,1.312977,18.679390,1.061069
0.753618,18:23:18.676,-0.039109,-0.002869,0.079834,0.945068,1.312977,18.679390,1.061069
0.754412,18:23:18.676,0.411398,-0.002869,0.079834,0.945068,1.312977,18.679390,1.061069
0.755206,18:23:18.677,0.805173,-0.002869,0.079834,0.945068,1.312977,18.679390,1.061069
0.756000,18:23:18.678,0.805173,-0.002869,0.079834,0.945068,1.312977,18.679390,1.061069
0.756794,18:23:18.679,1.501076,-0.002869,0.078918,0.947388,0.862595,18.259542,0.992366
0.757588,18:23:18.679,1.771481,-0.002869,0.078918,0.947388,0.862595,18.259542,0.992366
0.758382,18:23:18.680,1.977096,-0.002869,0.078918,0.947388,0.862595,18.259542,0.992366
0.759176,18:23:18.681,2.253040,-0.002869,0.078918,0.947388,0.862595,18.259542,0.992366
0.759971,18:23:18.682,2.289967,-0.002869,0.078918,0.947388,0.862595,18.259542,0.992366
0.760765,18:23:18.683,2.063706,-0.002869,0.078918,0.947388,0.862595,18.259542,0.992366
0.761559,18:23:18.683,1.680339,-0.002869,0.078918,0.947388,0.862595,18.259542,0.992366
0.762353,18:23:18.684,1.094881,-0.002869,0.078918,0.947388,0.862595,18.259542,0.992366
0.763147,18:23:18.685,0.489616,-0.000122,0.077332,0.952576,2.022901,17.488550,0.778626
0.763941,18:23:18.686,0.489616,-0.000122,0.077332,0.952576,2.022901,17.488550,0.778626
0.764735,18:23:18.687,-0.547356,-0.000122,0.077332,0.952576,2.022901,17.488550,0.778626
0.765529,18:23:18.687,-1.327520,-0.000122,0.077332,0.952576,2.022901,17.488550,0.778626
0.766324,18:23:18.688,-1.926406,-0.000122,0.077332,0.952576,2.022901,17.488550,0.778626
0.767118,18:23:18.689,-2.394705,-0.000122,0.077332,0.952576,2.022901,17.488550,0.778626
0.767912,18:23:18.690,-2.721340,-0.000122,0.077332,0.952576,2.022901,17.488550,0.778626
0.768706,18:23:18.691,-2.854948,-0.000122,0.077332,0.952576,2.022901,17.488550,0.778626
0.769500,18:23:18.691,-2.776562,0.003052,0.074036,0.957825,3.534351,17.236641,0.900763
0.770294,18:23:18.692,-2.401251,0.003052,0.074036,0.957825,3.534351,17.236641,0.900763
0.771088,18:23:18.693,-1.883436,0.003052,0.074036,0.957825,3.534351,17.236641,0.900763
0.771882,18:23:18.694,-1.345983,0.003052,0.074036,0.957825,3.534351,17.236641,0.900763
0.772676,18:23:18.695,-1.345983,0.003052,0.074036,0.957825,3.534351,17.236641,0.900763
0.773471,18:23:18.695,-0.094499,0.003052,0.074036,0.957825,3.534351,17.236641,0.900763
0.774265,18:23:18.696,0.447822,0.003052,0.074036,0.957825,3.534351,17.236641,0.900763
0.775059,18:23:18.697,0.936934,0.003052,0.074036,0.957825,3.534351,17.236641,0.900763
0.775853,18:23:18.698,1.346319,0.003052,0.074036,0.957825,3.534351,17.236641,0.900763
0.776647,18:23:18.699,1.716930,0.001770,0.077087,0.955872,5.435114,17.564886,1.045802
0.777441,18:23:18.699,2.079820,0.001770,0.077087,0.955872,5.435114,17.564886,1.045802
0.778235,18:23:18.700,2.346365,0.001770,0.077087,0.955872,5.435114,17.564886,1.045802
0.779029,18:23:18.701,2.642451,0.001770,0.077087,0.955872,5.435114,17.564886,1.045802
0.779824,18:23:18.702,2.761959,0.001770,0.077087,0.955872,5.435114,17.564886,1.045802
0.780618,18:23:18.703,2.585885,0.001770,0.077087,0.955872,5.435114,17.564886,1.045802
0.781412,18:23:18.703,2.585885,0.001770,0.077087,0.955872,5.435114,17.564886,1.045802
0.782206,18:23:18.704,1.679667,0.001770,0.077087,0.955872,5.435114,17.564886,1.045802
0.783000,18:23:18.705,1.022705,0.001770,0.077087,0.955872,5.435114,17.564886,1.045802
0.783794,18:23:18.706,0.512108,0.000671,0.077515,0.948547,6.778626,18.061069,0.809160
0.784588,18:23:18.706,-0.048676,0.000671,0.077515,0.948547,6.778626,18.061069,0.809160
0.785382,18:23:18.707,-0.847471,0.000671,0.077515,0.948547,6.778626,18.061069,0.809160
0.786176,18:23:18.708,-1.525582,0.000671,0.077515,0.948547,6.778626,18.061069,0.809160
0.786971,18:23:18.709,-2.058671,0.000671,0.077515,0.948547,6.778626,18.061069,0.809160
0.787765,18:23:18.710,-2.500954,0.000671,0.077515,0.948547,6.778626,18.061069,0.809160
0.788559,18:23:18.710,-2.746685,0.000671,0.077515,0.948547,6.778626,18.061069,0.809160
0.789353,18:23:18.711,-2.746685,0.000671,0.077515,0.948547,6.778626,18.061069,0.809160
0.790147,18:23:18.712,-2.540398,-0.003113,0.081421,0.949036,7.603054,17.854961,0.625954
0.790941,18:23:18.713,-2.091234,-0.003113,0.081421,0.949036,7.603054,17.854961,0.625954
0.791735,18:23:18.714,-1.610849,-0.003113,0.081421,0.949036,7.603054,17.854961,0.625954
0.792529,18:23:18.714,-1.081117,-0.003113,0.081421,0.949036,7.603054,17.854961,0.625954
0.793324,18:23:18.715,-0.458228,-0.003113,0.081421,0.949036,7.603054,17.854961,0.625954
0.794118,18:23:18.716,0.067308,-0.003113,0.081421,0.949036,7.603054,17.854961,0.625954
0.794912,18:23:18.717,0.532753,-0.003113,0.081421,0.949036,7.603054,17.854961,0.625954
0.795706,18:23:18.718,0.956237,-0.003113,0.081421,0.949036,7.603054,17.854961,0.625954
0.796500,18:23:18.718,1.326177,-0.003540,0.083862,0.949097,7.511450,17.580153,0.541985
0.797294,18:23:18.719,1.711894,-0.003540,0.083862,0.949097,7.511450,17.580153,0.541985
0.798088,18:23:18.720,1.711894,-0.003540,0.083862,0.949097,7.511450,17.580153,0.541985
0.798882,18:23:18.721,2.338140,-0.003540,0.083862,0.949097,7.511450,17.580153,0.541985
0.799676,18:23:18.722,2.551812,-0.003540,0.083862,0.949097,7.511450,17.580153,0.541985
0.800471,18:23:18.722,2.459159,-0.003540,0.083862,0.949097,7.511450,17.580153,0.541985
0.801265,18:23:18.723,2.180529,-0.003540,0.083862,0.949097,7.511450,17.580153,0.541985
0.802059,18:23:18.724,1.731365,-0.003540,0.083862,0.949097,7.511450,17.580153,0.541985
0.802853,18:23:18.725,1.122408,-0.003540,0.083862,0.949097,7.511450,17.580153,0.541985
0.803647,18:23:18.726,0.620874,-0.007446,0.084595,0.941467,7.297710,17.603054,0.702290
0.804441,18:23:18.726,0.175402,-0.007446,0.084595,0.941467,7.297710,17.603054,0.702290
0.805235,18:23:18.727,-0.536614,-0.007446,0.084595,0.941467,7.297710,17.603054,0.702290
0.806029,18:23:18.728,-0.536614,-0.007446,0.084595,0.941467,7.297710,17.603054,0.702290
0.806824,18:23:18.729,-1.723308,-0.007446,0.084595,0.941467,7.297710,17.603054,0.702290
0.807618,18:23:18.730,-2.144274,-0.007446,0.084595,0.941467,7.297710,17.603054,0.702290
0.808412,18:23:18.730,-2.394369,-0.007446,0.084595,0.941467,7.297710,17.603054,0.702290
0.809206,18:23:18.731,-2.467048,-0.007446,0.084595,0.941467,7.297710,17.603054,0.702290
0.810000,18:23:18.732,-2.248508,-0.005798,0.088501,0.939636,6.145038,17.763359,0.816794
0.810794,18:23:18.733,-1.814786,-0.005798,0.088501,0.939636,6.145038,17.763359,0.816794
0.811588,18:23:18.733,-1.327520,-0.005798,0.088501,0.939636,6.145038,17.763359,0.816794
0.812382,18:23:18.734,-0.830014,-0.005798,0.088501,0.939636,6.145038,17.763359,0.816794
0.813176,18:23:18.735,-0.242206,-0.005798,0.088501,0.939636,6.145038,17.763359,0.816794
0.813971,18:23:18.736,0.291554,-0.005798,0.088501,0.939636,6.145038,17.763359,0.816794
0.814765,18:23:18.737,0.729473,-0.005798,0.088501,0.939636,6.145038,17.763359,0.816794
0.815559,18:23:18.737,1.126101,-0.005798,0.088501,0.939636,6.145038,17.763359,0.816794
0.816353,18:23:18.738,1.437293,-0.005798,0.088501,0.939636,6.145038,17.763359,0.816794
0.817147,18:23:18.739,1.780377,-0.004150,0.087463,0.939087,4.412214,17.450382,1.053435
0.817941,18:23:18.740,2.029465,-0.004150,0.087463,0.939087,4.412214,17.450382,1.053435
0.818735,18:23:18.741,2.294499,-0.004150,0.087463,0.939087,4.412214,17.450382,1.053435
0.819529,18:23:18.741,2.515221,-0.004150,0.087463,0.939087,4.412214,17.450382,1.053435
0.820324,18:23:18.742,2.448081,-0.004150,0.087463,0.939087,4.412214,17.450382,1.053435
0.821118,18:23:18.743,2.155856,-0.004150,0.087463,0.939087,4.412214,17.450382,1.053435
0.821912,18:23:18.744,1.686381,-0.004150,0.087463,0.939087,4.412214,17.450382,1.053435
0.822706,18:23:18.745,1.051240,-0.004150,0.087463,0.939087,4.412214,17.450382,1.053435
0.823500,18:23:18.745,0.510933,-0.004150,0.087463,0.939087,4.412214,17.450382,1.053435
0.824294,18:23:18.746,0.057572,-0.001343,0.084839,0.943115,2.152672,17.312977,1.030534
0.825088,18:23:18.747,-0.643870,-0.001343,0.084839,0.943115,2.152672,17.312977,1.030534
0.825882,18:23:18.748,-1.368475,-0.001343,0.084839,0.943115,2.152672,17.312977,1.030534
0.826676,18:23:18.749,-1.908446,-0.001343,0.084839,0.943115,2.152672,17.312977,1.030534
0.827471,18:23:18.749,-2.354925,-0.001343,0.084839,0.943115,2.152672,17.312977,1.030534
0.828265,18:23:18.750,-2.640436,-0.001343,0.084839,0.943115,2.152672,17.312977,1.030534
0.829059,18:23:18.751,-2.741650,-0.001343,0.084839,0.943115,2.152672,17.312977,1.030534
0.829853,18:23:18.752,-2.574304,-0.001343,0.084839,0.943115,2.152672,17.312977,1.030534
0.830647,18:23:18.753,-2.146624,0.000854,0.078430,0.944763,0.167939,18.022902,1.221374
0.831441,18:23:18.753,-1.633005,0.000854,0.078430,0.944763,0.167939,18.022902,1.221374
0.832235,18:23:18.754,-1.114687,0.000854,0.078430,0.944763,0.167939,18.022902,1.221374
0.833029,18:23:18.755,-0.523018,0.000854,0.078430,0.944763,0.167939,18.022902,1.221374
0.833824,18:23:18.756,0.047501,0.000854,0.078430,0.944763,0.167939,18.022902,1.221374
0.834618,18:23:18.757,0.521172,0.000854,0.078430,0.944763,0.167939,18.022902,1.221374
0.835412,18:23:18.757,0.963287,0.000854,0.078430,0.944763,0.167939,18.022902,1.221374
0.836206,18:23:18.758,1.279179,0.000854,0.078430,0.944763,0.167939,18.022902,1.221374
0.837000,18:23:18.759,1.615549,0.000671,0.073608,0.945740,-1.244275,18.793894,1.190840
0.837794,18:23:18.760,1.922042,0.000671,0.073608,0.945740,-1.244275,18.793894,1.190840
0.838588,18:23:18.760,2.191272,0.000671,0.073608,0.945740,-1.244275,18.793894,1.190840
0.839382,18:23:18.761,2.446235,0.000671,0.073608,0.945740,-1.244275,18.793894,1.190840
0.840176,18:23:18.762,2.398734,0.000671,0.073608,0.945740,-1.244275,18.793894,1.190840
0.840971,18:23:18.763,2.127489,0.000671,0.073608,0.945740,-1.244275,18.793894,1.190840
0.841765,18:23:18.764,1.678996,0.000671,0.073608,0.945740,-1.244275,18.793894,1.190840
0.842559,18:23:18.764,1.051240,0.000671,0.073608,0.945740,-1.244275,18.793894,1.190840
0.843353,18:23:18.765,0.452354,0.000671,0.073608,0.945740,-1.244275,18.793894,1.190840
0.844147,18:23:18.766,0.017792,-0.005188,0.068604,0.948425,-1.679389,18.885496,1.129771
0.844941,18:23:18.767,-0.618021,-0.005188,0.068604,0.948425,-1.679389,18.885496,1.129771
0.845735,18:23:18.768,-1.391302,-0.005188,0.068604,0.948425,-1.679389,18.885496,1.129771
0.846529,18:23:18.768,-1.932113,-0.005188,0.068604,0.948425,-1.679389,18.885496,1.129771
0.847324,18:23:18.769,-2.397055,-0.005188,0.068604,0.948425,-1.679389,18.885496,1.129771
0.848118,18:23:18.770,-2.715633,-0.005188,0.068604,0.948425,-1.679389,18.885496,1.129771
0.848912,18:23:18.771,-2.845716,-0.005188,0.068604,0.948425,-1.679389,18.885496,1.129771
0.849706,18:23:18.772,-2.735607,-0.005188,0.068604,0.948425,-1.679389,18.885496,1.129771
0.850500,18:23:18.772,-2.323873,-0.005188,0.068604,0.948425,-1.679389,18.885496,1.129771
0.851294,18:23:18.773,-1.795651,-0.004639,0.065369,0.950073,-0.603053,18.832062,1.000000
0.852088,18:23:18.774,-1.265080,-0.004639,0.065369,0.950073,-0.603053,18.832062,1.000000
0.852882,18:23:18.775,-0.664851,-0.004639,0.065369,0.950073,-0.603053,18.832062,1.000000
0.853676,18:23:18.776,-0.063447,-0.004639,0.065369,0.950073,-0.603053,18.832062,1.000000
0.854471,18:23:18.776,0.431540,-0.004639,0.065369,0.950073,-0.603053,18.832062,1.000000
0.855265,18:23:18.777,0.888090,-0.004639,0.065369,0.950073,-0.603053,18.832062,1.000000
0.856059,18:23:18.778,1.236210,-0.004639,0.065369,0.950073,-0.603053,18.832062,1.000000
0.856853,18:23:18.779,1.570901,-0.004639,0.065369,0.950073,-0.603053,18.832062,1.000000
0.857647,18:23:18.780,1.903914,-0.007324,0.066284,0.956909,1.839695,18.053434,1.022901
0.858441,18:23:18.780,2.189090,-0.007324,0.066284,0.956909,1.839695,18.053434,1.022901
0.859235,18:23:18.781,2.482994,-0.007324,0.066284,0.956909,1.839695,18.053434,1.022901
0.860029,18:23:18.782,2.510857,-0.007324,0.066284,0.956909,1.839695,18.053434,1.022901
0.860824,18:23:18.783,2.291981,-0.007324,0.066284,0.956909,1.839695,18.053434,1.022901
0.861618,18:23:18.784,1.878737,-0.007324,0.066284,0.956909,1.839695,18.053434,1.022901
0.862412,18:23:18.784,1.284886,-0.007324,0.066284,0.956909,1.839695,18.053434,1.022901
0.863206,18:23:18.785,0.639338,-0.007324,0.066284,0.956909,1.839695,18.053434,1.022901
0.864000,18:23:18.786,0.187488,-0.005859,0.066223,0.957336,4.496183,17.389313,0.694656
0.864794,18:23:18.787,-0.365408,-0.005859,0.066223,0.957336,4.496183,17.389313,0.694656
0.865588,18:23:18.787,-1.114687,-0.005859,0.066223,0.957336,4.496183,17.389313,0.694656
0.866382,18:23:18.788,-1.705516,-0.005859,0.066223,0.957336,4.496183,17.389313,0.694656
0.867176,18:23:18.789,-2.191943,-0.005859,0.066223,0.957336,4.496183,17.389313,0.694656
0.867971,18:23:18.790,-2.530663,-0.005859,0.066223,0.957336,4.496183,17.389313,0.694656
0.868765,18:23:18.791,-2.689784,-0.005859,0.066223,0.957336,4.496183,17.389313,0.694656
0.869559,18:23:18.791,-2.628687,-0.005859,0.066223,0.957336,4.496183,17.389313,0.694656
0.870353,18:23:18.792,-2.275868,-0.005859,0.066223,0.957336,4.496183,17.389313,0.694656
0.871147,18:23:18.793,-1.747982,-0.004150,0.064026,0.953613,7.160306,16.870230,0.641221
0.871941,18:23:18.794,-1.197269,-0.004150,0.064026,0.953613,7.160306,16.870230,0.641221
0.872735,18:23:18.795,-0.602075,-0.004150,0.064026,0.953613,7.160306,16.870230,0.641221
0.873529,18:23:18.795,-0.000839,-0.004150,0.064026,0.953613,7.160306,16.870230,0.641221
0.874324,18:23:18.796,0.521172,-0.004150,0.064026,0.953613,7.160306,16.870230,0.641221
0.875118,18:23:18.797,0.982086,-0.004150,0.064026,0.953613,7.160306,16.870230,0.641221
0.875912,18:23:18.798,1.346319,-0.004150,0.064026,0.953613,7.160306,16.870230,0.641221
0.876706,18:23:18.799,1.669261,-0.004150,0.064026,0.953613,7.160306,16.870230,0.641221
0.877500,18:23:18.799,2.026780,-0.001770,0.077454,0.957092,9.389313,15.946565,0.832061
0.878294,18:23:18.800,2.297353,-0.001770,0.077454,0.957092,9.389313,15.946565,0.832061
0.879088,18:23:18.801,2.596796,-0.001770,0.077454,0.957092,9.389313,15.946565,0.832061
0.879882,18:23:18.802,2.695491,-0.001770,0.077454,0.957092,9.389313,15.946565,0.832061
0.880676,18:23:18.803,2.492729,-0.001770,0.077454,0.957092,9.389313,15.946565,0.832061
0.881471,18:23:18.803,2.106676,-0.001770,0.077454,0.957092,9.389313,15.946565,0.832061
0.882265,18:23:18.804,1.535149,-0.001770,0.077454,0.957092,9.389313,15.946565,0.832061
0.883059,18:23:18.805,0.869795,-0.001770,0.077454,0.957092,9.389313,15.946565,0.832061
0.883853,18:23:18.806,0.367422,-0.001770,0.077454,0.957092,9.389313,15.946565,0.832061
0.884647,18:23:18.807,-0.154589,0.001648,0.082520,0.955750,11.473283,15.641221,0.435115
0.885441,18:23:18.807,-0.929549,0.001648,0.082520,0.955750,11.473283,15.641221,0.435115
0.886235,18:23:18.808,-1.567880,0.001648,0.082520,0.955750,11.473283,15.641221,0.435115
0.887029,18:23:18.809,-2.084184,0.001648,0.082520,0.955750,11.473283,15.641221,0.435115
0.887824,18:23:18.810,-2.479973,0.001648,0.082520,0.955750,11.473283,15.641221,0.435115
0.888618,18:23:18.811,-2.697169,0.001648,0.082520,0.955750,11.473283,15.641221,0.435115
0.889412,18:23:18.811,-2.723354,0.001648,0.082520,0.955750,11.473283,15.641221,0.435115
0.890206,18:23:18.812,-2.441032,0.001648,0.082520,0.955750,11.473283,15.641221,0.435115
0.891000,18:23:18.813,-1.947219,0.001770,0.090027,0.950195,12.541985,16.748091,0.236641
0.891794,18:23:18.814,-1.396841,0.001770,0.090027,0.950195,12.541985,16.748091,0.236641
0.892588,18:23:18.814,-0.823804,0.001770,0.090027,0.950195,12.541985,16.748091,0.236641
0.893382,18:23:18.815,-0.200916,0.001770,0.090027,0.950195,12.541985,16.748091,0.236641
0.894176,18:23:18.816,0.335531,0.001770,0.090027,0.950195,12.541985,16.748091,0.236641
0.894971,18:23:18.817,0.847135,0.001770,0.090027,0.950195,12.541985,16.748091,0.236641
0.895765,18:23:18.818,1.257191,0.001770,0.090027,0.950195,12.541985,16.748091,0.236641
0.896559,18:23:18.818,1.566873,0.001770,0.090027,0.950195,12.541985,16.748091,0.236641
0.897353,18:23:18.819,1.931441,0.001770,0.090027,0.950195,12.541985,16.748091,0.236641
0.898147,18:23:18.820,2.244984,-0.002563,0.092590,0.945374,12.396947,17.267176,0.106870
0.898941,18:23:18.821,2.582025,-0.002563,0.092590,0.945374,12.396947,17.267176,0.106870
0.899735,18:23:18.822,2.756420,-0.002563,0.092590,0.945374,12.396947,17.267176,0.106870
0.900529,18:23:18.822,2.613581,-0.002563,0.092590,0.945374,12.396947,17.267176,0.106870
0.901324,18:23:18.823,2.274357,-0.002563,0.092590,0.945374,12.396947,17.267176,0.106870
0.902118,18:23:18.824,1.762249,-0.002563,0.092590,0.945374,12.396947,17.267176,0.106870
0.902912,18:23:18.825,1.088167,-0.002563,0.092590,0.945374,12.396947,17.267176,0.106870
0.903706,18:23:18.826,0.552728,-0.002563,0.092590,0.945374,12.396947,17.267176,0.106870
0.904500,18:23:18.826,0.083757,-0.004944,0.101624,0.937378,10.977099,17.221375,0.442748
0.905294,18:23:18.827,-0.657465,-0.004944,0.101624,0.937378,10.977099,17.221375,0.442748
0.906088,18:23:18.828,-1.348333,-0.004944,0.101624,0.937378,10.977099,17.221375,0.442748
0.906882,18:23:18.829,-1.882094,-0.004944,0.101624,0.937378,10.977099,17.221375,0.442748
0.907676,18:23:18.830,-2.339651,-0.004944,0.101624,0.937378,10.977099,17.221375,0.442748
0.908471,18:23:18.830,-2.626673,-0.004944,0.101624,0.937378,10.977099,17.221375,0.442748
0.909265,18:23:18.831,-2.735103,-0.004944,0.101624,0.937378,10.977099,17.221375,0.442748
0.910059,18:23:18.832,-2.527474,-0.004944,0.101624,0.937378,10.977099,17.221375,0.442748
0.910853,18:23:18.833,-2.091569,-0.004944,0.101624,0.937378,10.977099,17.221375,0.442748
0.911647,18:23:18.834,-1.567712,-0.003296,0.103760,0.944275,8.977099,16.320610,0.488550
0.912441,18:23:18.834,-1.022370,-0.003296,0.103760,0.944275,8.977099,16.320610,0.488550
0.913235,18:23:18.835,-0.440940,-0.003296,0.103760,0.944275,8.977099,16.320610,0.488550
0.914029,18:23:18.836,0.085100,-0.003296,0.103760,0.944275,8.977099,16.320610,0.488550
0.914824,18:23:18.837,0.551049,-0.003296,0.103760,0.944275,8.977099,16.320610,0.488550
0.915618,18:23:18.838,0.940795,-0.003296,0.103760,0.944275,8.977099,16.320610,0.488550
0.916412,18:23:18.838,1.199619,-0.003296,0.103760,0.944275,8.977099,16.320610,0.488550
0.917206,18:23:18.839,1.520714,-0.003296,0.103760,0.944275,8.977099,16.320610,0.488550
0.918000,18:23:18.840,1.823346,0.004333,0.111023,0.943115,7.274809,15.961832,0.335878
0.918794,18:23:18.841,2.144945,0.004333,0.111023,0.943115,7.274809,15.961832,0.335878
0.919588,18:23:18.841,2.354757,0.004333,0.111023,0.943115,7.274809,15.961832,0.335878
0.920382,18:23:18.842,2.232898,0.004333,0.111023,0.943115,7.274809,15.961832,0.335878
0.921176,18:23:18.843,1.917342,0.004333,0.111023,0.943115,7.274809,15.961832,0.335878
0.921971,18:23:18.844,1.432593,0.004333,0.111023,0.943115,7.274809,15.961832,0.335878
0.922765,18:23:18.845,0.771939,0.004333,0.111023,0.943115,7.274809,15.961832,0.335878
0.923559,18:23:18.845,0.186481,0.004333,0.111023,0.943115,7.274809,15.961832,0.335878
0.924353,18:23:18.846,-0.249592,0.004333,0.111023,0.943115,7.274809,15.961832,0.335878
0.925147,18:23:18.847,-0.909407,0.007690,0.105347,0.933105,4.229008,16.954199,0.725191
0.925941,18:23:18.848,-1.583322,0.007690,0.105347,0.933105,4.229008,16.954199,0.725191
0.926735,18:23:18.849,-2.112383,0.007690,0.105347,0.933105,4.229008,16.954199,0.725191
0.927529,18:23:18.849,-2.565743,0.007690,0.105347,0.933105,4.229008,16.954199,0.725191
0.928324,18:23:18.850,-2.813993,0.007690,0.105347,0.933105,4.229008,16.954199,0.725191
0.929118,18:23:18.851,-2.929137,0.007690,0.105347,0.933105,4.229008,16.954199,0.725191
0.929912,18:23:18.852,-2.752895,0.007690,0.105347,0.933105,4.229008,16.954199,0.725191
0.930706,18:23:18.853,-2.307424,0.007690,0.105347,0.933105,4.229008,16.954199,0.725191
0.931500,18:23:18.853,-1.730526,0.003662,0.096680,0.926697,-0.702290,19.358778,1.358779
0.932294,18:23:18.854,-1.129793,0.003662,0.096680,0.926697,-0.702290,19.358778,1.358779
0.933088,18:23:18.855,-0.493980,0.003662,0.096680,0.926697,-0.702290,19.358778,1.358779
0.933882,18:23:18.856,0.086107,0.003662,0.096680,0.926697,-0.702290,19.358778,1.358779
0.934676,18:23:18.857,0.618189,0.003662,0.096680,0.926697,-0.702290,19.358778,1.358779
0.935471,18:23:18.857,1.102602,0.003662,0.096680,0.926697,-0.702290,19.358778,1.358779
0.936265,18:23:18.858,1.405066,0.003662,0.096680,0.926697,-0.702290,19.358778,1.358779
0.937059,18:23:18.859,1.763928,0.003662,0.096680,0.926697,-0.702290,19.358778,1.358779
0.937853,18:23:18.860,2.105333,0.003662,0.096680,0.926697,-0.702290,19.358778,1.358779
0.938647,18:23:18.861,2.443717,0.003357,0.090454,0.930359,-6.022901,20.435114,1.832061
0.939441,18:23:18.861,2.740139,0.003357,0.090454,0.930359,-6.022901,20.435114,1.832061
0.940235,18:23:18.862,2.716304,0.003357,0.090454,0.930359,-6.022901,20.435114,1.832061
0.941029,18:23:18.863,2.448417,0.003357,0.090454,0.930359,-6.022901,20.435114,1.832061
0.941824,18:23:18.864,2.022080,0.003357,0.090454,0.930359,-6.022901,20.435114,1.832061
0.942618,18:23:18.865,1.380056,0.003357,0.090454,0.930359,-6.022901,20.435114,1.832061
0.943412,18:23:18.865,0.753140,0.003357,0.090454,0.930359,-6.022901,20.435114,1.832061
0.944206,18:23:18.866,0.321431,0.003357,0.090454,0.930359,-6.022901,20.435114,1.832061
0.945000,18:23:18.867,-0.292226,0.001770,0.076721,0.946045,-9.564885,20.053434,1.839695
0.945794,18:23:18.868,-1.019013,0.001770,0.076721,0.946045,-9.564885,20.053434,1.839695
0.946588,18:23:18.868,-1.589532,0.001770,0.076721,0.946045,-9.564885,20.053434,1.839695
0.947382,18:23:18.869,-2.086534,0.001770,0.076721,0.946045,-9.564885,20.053434,1.839695
0.948176,18:23:18.870,-2.406790,0.001770,0.076721,0.946045,-9.564885,20.053434,1.839695
0.948971,18:23:18.871,-2.569604,0.001770,0.076721,0.946045,-9.564885,20.053434,1.839695
0.949765,18:23:18.872,-2.504143,0.001770,0.076721,0.946045,-9.564885,20.053434,1.839695
0.950559,18:23:18.872,-2.132525,0.001770,0.076721,0.946045,-9.564885,20.053434,1.839695
0.951353,18:23:18.873,-1.615885,0.001770,0.076721,0.946045,-9.564885,20.053434,1.839695
0.952147,18:23:18.874,-1.054093,-0.001343,0.069702,0.954468,-9.702291,20.763359,1.458015
0.952941,18:23:18.875,-0.473335,-0.001343,0.069702,0.954468,-9.702291,20.763359,1.458015
0.953735,18:23:18.876,0.066300,-0.001343,0.069702,0.954468,-9.702291,20.763359,1.458015
0.954529,18:23:18.876,0.549371,-0.001343,0.069702,0.954468,-9.702291,20.763359,1.458015
0.955324,18:23:18.877,1.036133,-0.001343,0.069702,0.954468,-9.702291,20.763359,1.458015
0.956118,18:23:18.878,1.328191,-0.001343,0.069702,0.954468,-9.702291,20.763359,1.458015
0.956912,18:23:18.879,1.583993,-0.001343,0.069702,0.954468,-9.702291,20.763359,1.458015
0.957706,18:23:18.880,1.891493,-0.001343,0.069702,0.954468,-9.702291,20.763359,1.458015
0.958500,18:23:18.880,2.188418,-0.005920,0.059326,0.961609,-6.809160,21.129770,0.977099
0.959294,18:23:18.881,2.500114,-0.005920,0.059326,0.961609,-6.809160,21.129770,0.977099
0.960088,18:23:18.882,2.490547,-0.005920,0.059326,0.961609,-6.809160,21.129770,0.977099
0.960882,18:23:18.883,2.217792,-0.005920,0.059326,0.961609,-6.809160,21.129770,0.977099
0.961676,18:23:18.884,1.791623,-0.005920,0.059326,0.961609,-6.809160,21.129770,0.977099
0.962471,18:23:18.884,1.176623,-0.005920,0.059326,0.961609,-6.809160,21.129770,0.977099
0.963265,18:23:18.885,0.479881,-0.005920,0.059326,0.961609,-6.809160,21.129770,0.977099
0.964059,18:23:18.886,0.003693,-0.005920,0.059326,0.961609,-6.809160,21.129770,0.977099
0.964853,18:23:18.887,-0.547356,-0.005920,0.059326,0.961609,-6.809160,21.129770,0.977099
0.965647,18:23:18.888,-1.278004,-0.007629,0.059387,0.968628,-1.312977,19.206106,0.641221
0.966441,18:23:18.888,-1.855238,-0.007629,0.059387,0.968628,-1.312977,19.206106,0.641221
0.967235,18:23:18.889,-2.354253,-0.007629,0.059387,0.968628,-1.312977,19.206106,0.641221
0.968029,18:23:18.890,-2.687938,-0.007629,0.059387,0.968628,-1.312977,19.206106,0.641221
0.968824,18:23:18.891,-2.855955,-0.007629,0.059387,0.968628,-1.312977,19.206106,0.641221
0.969618,18:23:18.892,-2.822721,-0.007629,0.059387,0.968628,-1.312977,19.206106,0.641221
0.970412,18:23:18.892,-2.478630,-0.007629,0.059387,0.968628,-1.312977,19.206106,0.641221
0.971206,18:23:18.893,-1.920027,-0.007629,0.059387,0.968628,-1.312977,19.206106,0.641221
0.972000,18:23:18.894,-1.305028,-0.003113,0.060059,0.972229,5.167939,16.458015,0.526718
0.972794,18:23:18.895,-0.674418,-0.003113,0.060059,0.972229,5.167939,16.458015,0.526718
0.973588,18:23:18.895,-0.058915,-0.003113,0.060059,0.972229,5.167939,16.458015,0.526718
0.974382,18:23:18.896,0.502037,-0.003113,0.060059,0.972229,5.167939,16.458015,0.526718
0.975176,18:23:18.897,1.049897,-0.003113,0.060059,0.972229,5.167939,16.458015,0.526718
0.975971,18:23:18.898,1.420508,-0.003113,0.060059,0.972229,5.167939,16.458015,0.526718
0.976765,18:23:18.899,1.712566,-0.003113,0.060059,0.972229,5.167939,16.458015,0.526718
0.977559,18:23:18.899,2.072770,-0.003113,0.060059,0.972229,5.167939,16.458015,0.526718
0.978353,18:23:18.900,2.407462,-0.003113,0.060059,0.972229,5.167939,16.458015,0.526718
0.979147,18:23:18.901,2.777066,0.000732,0.066772,0.967896,11.633588,15.099236,0.274809
0.979941,18:23:18.902,2.870726,0.000732,0.066772,0.967896,11.633588,15.099236,0.274809
0.980735,18:23:18.903,2.630365,0.000732,0.066772,0.967896,11.633588,15.099236,0.274809
0.981529,18:23:18.903,2.225177,0.000732,0.066772,0.967896,11.633588,15.099236,0.274809
0.982324,18:23:18.904,1.649287,0.000732,0.066772,0.967896,11.633588,15.099236,0.274809
0.983118,18:23:18.905,0.927367,0.000732,0.066772,0.967896,11.633588,15.099236,0.274809
0.983912,18:23:18.906,0.379843,0.000732,0.066772,0.967896,11.633588,15.099236,0.274809
0.984706,18:23:18.907,-0.170703,0.000732,0.066772,0.967896,11.633588,15.099236,0.274809
0.985500,18:23:18.907,-0.920653,0.005432,0.075500,0.956177,15.587787,15.076336,0.259542
0.986294,18:23:18.908,-1.546059,0.005432,0.075500,0.956177,15.587787,15.076336,0.259542
0.987088,18:23:18.909,-2.117922,0.005432,0.075500,0.956177,15.587787,15.076336,0.259542
0.987882,18:23:18.910,-2.558862,0.005432,0.075500,0.956177,15.587787,15.076336,0.259542
0.988676,18:23:18.911,-2.791836,0.005432,0.075500,0.956177,15.587787,15.076336,0.259542
0.989471,18:23:18.911,-2.865690,0.005432,0.075500,0.956177,15.587787,15.076336,0.259542
0.990265,18:23:18.912,-2.617609,0.005432,0.075500,0.956177,15.587787,15.076336,0.259542
0.991059,18:23:18.913,-2.150652,0.005432,0.075500,0.956177,15.587787,15.076336,0.259542
0.991853,18:23:18.914,-1.607492,0.005432,0.075500,0.956177,15.587787,15.076336,0.259542
0.992647,18:23:18.915,-1.021363,0.009766,0.086792,0.949280,16.519083,15.152672,0.511450
0.993441,18:23:18.915,-0.454032,0.009766,0.086792,0.949280,16.519083,15.152672,0.511450
0.994235,18:23:18.916,0.039948,0.009766,0.086792,0.949280,16.519083,15.152672,0.511450
0.995029,18:23:18.917,0.567163,0.009766,0.086792,0.949280,16.519083,15.152672,0.511450
0.995824,18:23:18.918,0.965972,0.009766,0.086792,0.949280,16.519083,15.152672,0.511450
0.996618,18:23:18.919,1.208347,0.009766,0.086792,0.949280,16.519083,15.152672,0.511450
0.997412,18:23:18.919,1.555459,0.009766,0.086792,0.949280,16.519083,15.152672,0.511450
0.998206,18:23:18.920,1.880415,0.009766,0.086792,0.949280,16.519083,15.152672,0.511450
0.999000,18:23:18.921,2.257069,0.012512,0.094543,0.944092,15.900764,15.458015,0.351145
0.999794,18:23:18.922,2.441367,0.012512,0.094543,0.944092,15.900764,15.458015,0.351145
1.000588,18:23:18.922,2.271839,0.012512,0.094543,0.944092,15.900764,15.458015,0.351145
1.001382,18:23:18.923,1.938323,0.012512,0.094543,0.944092,15.900764,15.458015,0.351145
1.002176,18:23:18.924,1.444007,0.012512,0.094543,0.944092,15.900764,15.458015,0.351145
1.002971,18:23:18.925,1.444007,0.012512,0.094543,0.944092,15.900764,15.458015,0.351145
1.003765,18:23:18.926,0.255467,0.012512,0.094543,0.944092,15.900764,15.458015,0.351145
1.004559,18:23:18.926,-0.170871,0.012512,0.094543,0.944092,15.900764,15.458015,0.351145
1.005353,18:23:18.927,-0.832700,0.012512,0.094543,0.944092,15.900764,15.458015,0.351145
1.006147,18:23:18.928,-1.408759,0.007507,0.104309,0.936462,13.053435,16.877863,0.190840
1.006941,18:23:18.929,-1.906432,0.007507,0.104309,0.936462,13.053435,16.877863,0.190840
1.007735,18:23:18.930,-2.327901,0.007507,0.104309,0.936462,13.053435,16.877863,0.190840
1.008529,18:23:18.930,-2.534356,0.007507,0.104309,0.936462,13.053435,16.877863,0.190840
1.009324,18:23:18.931,-2.585550,0.007507,0.104309,0.936462,13.053435,16.877863,0.190840
1.010118,18:23:18.932,-2.339818,0.007507,0.104309,0.936462,13.053435,16.877863,0.190840
1.010912,18:23:18.933,-1.853727,0.007507,0.104309,0.936462,13.053435,16.877863,0.190840
1.011706,18:23:18.934,-1.853727,0.007507,0.104309,0.936462,13.053435,16.877863,0.190840
1.012500,18:23:18.934,-0.635813,0.004333,0.107727,0.931396,8.259542,18.381680,0.053435
1.013294,18:23:18.935,-0.004196,0.004333,0.107727,0.931396,8.259542,18.381680,0.053435
1.014088,18:23:18.936,0.488945,0.004333,0.107727,0.931396,8.259542,18.381680,0.053435
1.014882,18:23:18.937,1.000717,0.004333,0.107727,0.931396,8.259542,18.381680,0.053435
1.015676,18:23:18.938,1.461463,0.004333,0.107727,0.931396,8.259542,18.381680,0.053435
1.016471,18:23:18.938,1.713909,0.004333,0.107727,0.931396,8.259542,18.381680,0.053435
1.017265,18:23:18.939,1.982300,0.004333,0.107727,0.931396,8.259542,18.381680,0.053435
1.018059,18:23:18.940,2.275868,0.004333,0.107727,0.931396,8.259542,18.381680,0.053435
1.018853,18:23:18.941,2.275868,0.004333,0.107727,0.931396,8.259542,18.381680,0.053435
1.019647,18:23:18.942,2.827756,0.000183,0.104431,0.932007,2.595420,19.274809,0.091603
1.020441,18:23:18.942,2.659907,0.000183,0.104431,0.932007,2.595420,19.274809,0.091603
1.021235,18:23:18.943,2.273182,0.000183,0.104431,0.932007,2.595420,19.274809,0.091603
1.022029,18:23:18.944,1.754192,0.000183,0.104431,0.932007,2.595420,19.274809,0.091603
1.022824,18:23:18.945,1.060639,0.000183,0.104431,0.932007,2.595420,19.274809,0.091603
1.023618,18:23:18.946,0.420127,0.000183,0.104431,0.932007,2.595420,19.274809,0.091603
1.024412,18:23:18.946,-0.070161,0.000183,0.104431,0.932007,2.595420,19.274809,0.091603
1.025206,18:23:18.947,-0.741726,0.000183,0.104431,0.932007,2.595420,19.274809,0.091603
1.026000,18:23:18.948,-1.395499,-0.003967,0.099792,0.934204,-2.732824,19.618320,0.519084
1.026794,18:23:18.949,-1.935805,-0.003967,0.099792,0.934204,-2.732824,19.618320,0.519084
1.027588,18:23:18.949,-1.935805,-0.003967,0.099792,0.934204,-2.732824,19.618320,0.519084
1.028382,18:23:18.950,-2.710933,-0.003967,0.099792,0.934204,-2.732824,19.618320,0.519084
1.029176,18:23:18.951,-2.819699,-0.003967,0.099792,0.934204,-2.732824,19.618320,0.519084
1.029971,18:23:18.952,-2.661082,-0.003967,0.099792,0.934204,-2.732824,19.618320,0.519084
1.030765,18:23:18.953,-2.228534,-0.003967,0.099792,0.934204,-2.732824,19.618320,0.519084
1.031559,18:23:18.953,-1.658015,-0.003967,0.099792,0.934204,-2.732824,19.618320,0.519084
1.032353,18:23:18.954,-1.032776,-0.003967,0.099792,0.934204,-2.732824,19.618320,0.519084
1.033147,18:23:18.955,-0.380850,-0.006226,0.091614,0.940369,-6.435114,19.992367,1.129771
1.033941,18:23:18.956,0.142000,-0.006226,0.091614,0.940369,-6.435114,19.992367,1.129771
1.034735,18:23:18.957,0.651087,-0.006226,0.091614,0.940369,-6.435114,19.992367,1.129771
1.035529,18:23:18.957,1.160006,-0.006226,0.091614,0.940369,-6.435114,19.992367,1.129771
1.036324,18:23:18.958,1.160006,-0.006226,0.091614,0.940369,-6.435114,19.992367,1.129771
1.037118,18:23:18.959,1.701152,-0.006226,0.091614,0.940369,-6.435114,19.992367,1.129771
1.037912,18:23:18.960,2.023087,-0.006226,0.091614,0.940369,-6.435114,19.992367,1.129771
1.038706,18:23:18.961,2.373724,-0.006226,0.091614,0.940369,-6.435114,19.992367,1.129771
1.039500,18:23:18.961,2.670649,-0.006226,0.091614,0.940369,-6.435114,19.992367,1.129771
1.040294,18:23:18.962,2.584710,-0.004211,0.080627,0.945496,-8.534351,20.129770,1.580153
1.041088,18:23:18.963,2.235584,-0.004211,0.080627,0.945496,-8.534351,20.129770,1.580153
1.041882,18:23:18.964,1.748821,-0.004211,0.080627,0.945496,-8.534351,20.129770,1.580153
1.042676,18:23:18.965,1.103441,-0.004211,0.080627,0.945496,-8.534351,20.129770,1.580153
1.043471,18:23:18.965,0.442283,-0.004211,0.080627,0.945496,-8.534351,20.129770,1.580153
1.044265,18:23:18.966,-0.062608,-0.004211,0.080627,0.945496,-8.534351,20.129770,1.580153
1.045059,18:23:18.967,-0.062608,-0.004211,0.080627,0.945496,-8.534351,20.129770,1.580153
1.045853,18:23:18.968,-1.364111,-0.004211,0.080627,0.945496,-8.534351,20.129770,1.580153
1.046647,18:23:18.969,-1.898039,-0.001526,0.071838,0.955505,-7.755725,19.938931,1.732824
1.047441,18:23:18.969,-2.448417,-0.001526,0.071838,0.955505,-7.755725,19.938931,1.732824
1.048235,18:23:18.970,-2.785290,-0.001526,0.071838,0.955505,-7.755725,19.938931,1.732824
1.049029,18:23:18.971,-2.923095,-0.001526,0.071838,0.955505,-7.755725,19.938931,1.732824
1.049824,18:23:18.972,-2.828595,-0.001526,0.071838,0.955505,-7.755725,19.938931,1.732824
1.050618,18:23:18.973,-2.435157,-0.001526,0.071838,0.955505,-7.755725,19.938931,1.732824
1.051412,18:23:18.973,-1.878737,-0.001526,0.071838,0.955505,-7.755725,19.938931,1.732824
1.052206,18:23:18.974,-1.878737,-0.001526,0.071838,0.955505,-7.755725,19.938931,1.732824
1.053000,18:23:18.975,-0.559442,0.001831,0.064209,0.960876,-5.160306,19.458015,1.763359
1.053794,18:23:18.976,-0.003525,0.001831,0.064209,0.960876,-5.160306,19.458015,1.763359
1.054588,18:23:18.976,0.508415,0.001831,0.064209,0.960876,-5.160306,19.458015,1.763359
1.055382,18:23:18.977,1.071382,0.001831,0.064209,0.960876,-5.160306,19.458015,1.763359
1.056176,18:23:18.978,1.419165,0.001831,0.064209,0.960876,-5.160306,19.458015,1.763359
1.056971,18:23:18.979,1.681346,0.001831,0.064209,0.960876,-5.160306,19.458015,1.763359
1.057765,18:23:18.980,2.007980,0.001831,0.064209,0.960876,-5.160306,19.458015,1.763359
1.058559,18:23:18.980,2.367849,0.001831,0.064209,0.960876,-5.160306,19.458015,1.763359
1.059353,18:23:18.981,2.720333,0.001831,0.064209,0.960876,-5.160306,19.458015,1.763359
1.060147,18:23:18.982,2.737118,0.002625,0.057434,0.964355,-1.076336,19.633587,1.427481
1.060941,18:23:18.983,2.737118,0.002625,0.057434,0.964355,-1.076336,19.633587,1.427481
1.061735,18:23:18.984,1.972396,0.002625,0.057434,0.964355,-1.076336,19.633587,1.427481
1.062529,18:23:18.984,1.356054,0.002625,0.057434,0.964355,-1.076336,19.633587,1.427481
1.063324,18:23:18.985,0.659480,0.002625,0.057434,0.964355,-1.076336,19.633587,1.427481
1.064118,18:23:18.986,0.138476,0.002625,0.057434,0.964355,-1.076336,19.633587,1.427481
1.064912,18:23:18.987,-0.459403,0.002625,0.057434,0.964355,-1.076336,19.633587,1.427481
1.065706,18:23:18.988,-1.151781,0.002625,0.057434,0.964355,-1.076336,19.633587,1.427481
1.066500,18:23:18.988,-1.694942,0.003235,0.055969,0.958862,3.412214,18.908398,0.770992
1.067294,18:23:18.989,-2.249012,0.003235,0.055969,0.958862,3.412214,18.908398,0.770992
1.068088,18:23:18.990,-2.660578,0.003235,0.055969,0.958862,3.412214,18.908398,0.770992
1.068882,18:23:18.991,-2.844205,0.003235,0.055969,0.958862,3.412214,18.908398,0.770992
1.069676,18:23:18.992,-2.844205,0.003235,0.055969,0.958862,3.412214,18.908398,0.770992
1.070471,18:23:18.992,-2.511192,0.003235,0.055969,0.958862,3.412214,18.908398,0.770992
1.071265,18:23:18.993,-2.004623,0.003235,0.055969,0.958862,3.412214,18.908398,0.770992
1.072059,18:23:18.994,-1.399359,0.003235,0.055969,0.958862,3.412214,18.908398,0.770992
1.072853,18:23:18.995,-0.739040,0.003235,0.055969,0.958862,3.412214,18.908398,0.770992
1.073647,18:23:18.996,-0.163317,-0.002075,0.058289,0.961365,7.511450,17.618320,0.221374
1.074441,18:23:18.996,0.282826,-0.002075,0.058289,0.961365,7.511450,17.618320,0.221374
1.075235,18:23:18.997,0.796948,-0.002075,0.058289,0.961365,7.511450,17.618320,0.221374
1.076029,18:23:18.998,1.178805,-0.002075,0.058289,0.961365,7.511450,17.618320,0.221374
1.076824,18:23:18.999,1.429572,-0.002075,0.058289,0.961365,7.511450,17.618320,0.221374
1.077618,18:23:19.000,1.705684,-0.002075,0.058289,0.961365,7.511450,17.618320,0.221374
1.078412,18:23:19.000,1.705684,-0.002075,0.058289,0.961365,7.511450,17.618320,0.221374
1.079206,18:23:19.001,2.411826,-0.002075,0.058289,0.961365,7.511450,17.618320,0.221374
1.080000,18:23:19.002,2.520928,-0.002075,0.058289,0.961365,7.511450,17.618320,0.221374
1.080794,18:23:19.003,2.269154,-0.003784,0.067505,0.957947,10.694656,16.671755,-0.022901
1.081588,18:23:19.003,1.821332,-0.003784,0.067505,0.957947,10.694656,16.671755,-0.022901
1.082382,18:23:19.004,1.249638,-0.003784,0.067505,0.957947,10.694656,16.671755,-0.022901
1.083176,18:23:19.005,0.563806,-0.003784,0.067505,0.957947,10.694656,16.671755,-0.022901
1.083971,18:23:19.006,0.027695,-0.003784,0.067505,0.957947,10.694656,16.671755,-0.022901
1.084765,18:23:19.007,-0.500023,-0.003784,0.067505,0.957947,10.694656,16.671755,-0.022901
1.085559,18:23:19.007,-0.500023,-0.003784,0.067505,0.957947,10.694656,16.671755,-0.022901
1.086353,18:23:19.008,-1.644923,-0.003784,0.067505,0.957947,10.694656,16.671755,-0.022901
