Rel_Time,System_Time,S6_EMG_1,S6_ACC_X,S6_ACC_Y,S6_ACC_Z,S6_GYRO_X,S6_GYRO_Y,S6_GYRO_Z
0.000000,18:03:29.324,1.255009,-0.061401,-0.206604,1.008057,19.404581,-0.404580,4.244275
0.000794,18:03:29.324,1.727337,-0.061401,-0.206604,1.008057,19.404581,-0.404580,4.244275
0.001588,18:03:29.325,2.525628,-0.061401,-0.206604,1.008057,19.404581,-0.404580,4.244275
0.002382,18:03:29.326,3.632761,-0.061401,-0.206604,1.008057,19.404581,-0.404580,4.244275
0.003176,18:03:29.327,5.040009,-0.061401,-0.206604,1.008057,19.404581,-0.404580,4.244275
0.003971,18:03:29.328,5.499916,-0.061401,-0.206604,1.008057,19.404581,-0.404580,4.244275
0.004765,18:03:29.328,5.499916,-0.061401,-0.206604,1.008057,19.404581,-0.404580,4.244275
0.005559,18:03:29.329,5.499916,-0.061401,-0.206604,1.008057,19.404581,-0.404580,4.244275
0.006353,18:03:29.330,5.499916,-0.061401,-0.206604,1.008057,19.404581,-0.404580,4.244275
0.007147,18:03:29.331,5.499916,-0.044189,-0.142822,0.991638,31.534351,-2.786260,3.839695
0.007941,18:03:29.331,5.499916,-0.044189,-0.142822,0.991638,31.534351,-2.786260,3.839695
0.008735,18:03:29.332,5.499916,-0.044189,-0.142822,0.991638,31.534351,-2.786260,3.839695
0.009529,18:03:29.333,5.499916,-0.044189,-0.142822,0.991638,31.534351,-2.786260,3.839695
0.010324,18:03:29.334,5.499916,-0.044189,-0.142822,0.991638,31.534351,-2.786260,3.839695
0.011118,18:03:29.335,5.499916,-0.044189,-0.142822,0.991638,31.534351,-2.786260,3.839695
0.011912,18:03:29.335,5.499916,-0.044189,-0.142822,0.991638,31.534351,-2.786260,3.839695
0.012706,18:03:29.336,5.499916,-0.044189,-0.142822,0.991638,31.534351,-2.786260,3.839695
0.013500,18:03:29.337,5.499916,-0.042419,-0.086304,0.981445,43.053436,-5.229008,0.435115
0.014294,18:03:29.338,5.499916,-0.042419,-0.086304,0.981445,43.053436,-5.229008,0.435115
0.015088,18:03:29.339,5.499916,-0.042419,-0.086304,0.981445,43.053436,-5.229008,0.435115
0.015882,18:03:29.339,5.499916,-0.042419,-0.086304,0.981445,43.053436,-5.229008,0.435115
0.016676,18:03:29.340,5.085664,-0.042419,-0.086304,0.981445,43.053436,-5.229008,0.435115
0.017471,18:03:29.341,5.499916,-0.042419,-0.086304,0.981445,43.053436,-5.229008,0.435115
0.018265,18:03:29.342,5.499916,-0.042419,-0.086304,0.981445,43.053436,-5.229008,0.435115
0.019059,18:03:29.343,5.499916,-0.042419,-0.086304,0.981445,43.053436,-5.229008,0.435115
0.019853,18:03:29.343,3.564950,-0.042419,-0.086304,0.981445,43.053436,-5.229008,0.435115
0.020647,18:03:29.344,5.144747,-0.047424,-0.037109,0.951111,48.877861,-8.083969,-3.801527
0.021441,18:03:29.345,4.915129,-0.047424,-0.037109,0.951111,48.877861,-8.083969,-3.801527
0.022235,18:03:29.346,4.978912,-0.047424,-0.037109,0.951111,48.877861,-8.083969,-3.801527
0.023029,18:03:29.347,5.475074,-0.047424,-0.037109,0.951111,48.877861,-8.083969,-3.801527
0.023824,18:03:29.347,5.499916,-0.047424,-0.037109,0.951111,48.877861,-8.083969,-3.801527
0.024618,18:03:29.348,5.499916,-0.047424,-0.037109,0.951111,48.877861,-8.083969,-3.801527
0.025412,18:03:29.349,5.499916,-0.047424,-0.037109,0.951111,48.877861,-8.083969,-3.801527
0.026206,18:03:29.350,5.499916,-0.047424,-0.037109,0.951111,48.877861,-8.083969,-3.801527
0.027000,18:03:29.351,5.499916,-0.060364,-0.005615,0.904968,43.633587,-11.480916,-5.793893
0.027794,18:03:29.351,5.499916,-0.060364,-0.005615,0.904968,43.633587,-11.480916,-5.793893
0.028588,18:03:29.352,5.499916,-0.060364,-0.005615,0.904968,43.633587,-11.480916,-5.793893
0.029382,18:03:29.353,5.499916,-0.060364,-0.005615,0.904968,43.633587,-11.480916,-5.793893
0.030176,18:03:29.354,5.499916,-0.060364,-0.005615,0.904968,43.633587,-11.480916,-5.793893
0.030971,18:03:29.355,5.499916,-0.060364,-0.005615,0.904968,43.633587,-11.480916,-5.793893
0.031765,18:03:29.355,5.499916,-0.060364,-0.005615,0.904968,43.633587,-11.480916,-5.793893
0.032559,18:03:29.356,5.499916,-0.060364,-0.005615,0.904968,43.633587,-11.480916,-5.793893
0.033353,18:03:29.357,5.499916,-0.060364,-0.005615,0.904968,43.633587,-11.480916,-5.793893
0.034147,18:03:29.358,5.499916,-0.064697,0.007507,0.861572,27.129770,-10.916031,-4.221374
0.034941,18:03:29.358,5.499916,-0.064697,0.007507,0.861572,27.129770,-10.916031,-4.221374
0.035735,18:03:29.359,5.499916,-0.064697,0.007507,0.861572,27.129770,-10.916031,-4.221374
0.036529,18:03:29.360,5.499916,-0.064697,0.007507,0.861572,27.129770,-10.916031,-4.221374
0.037324,18:03:29.361,5.499916,-0.064697,0.007507,0.861572,27.129770,-10.916031,-4.221374
0.038118,18:03:29.362,5.499916,-0.064697,0.007507,0.861572,27.129770,-10.916031,-4.221374
0.038912,18:03:29.362,5.499916,-0.064697,0.007507,0.861572,27.129770,-10.916031,-4.221374
0.039706,18:03:29.363,5.499916,-0.064697,0.007507,0.861572,27.129770,-10.916031,-4.221374
0.040500,18:03:29.364,5.499916,-0.064697,0.007507,0.861572,27.129770,-10.916031,-4.221374
0.041294,18:03:29.365,5.499916,-0.057983,0.006409,0.837280,3.450382,-5.297710,0.702290
0.042088,18:03:29.366,3.387030,-0.057983,0.006409,0.837280,3.450382,-5.297710,0.702290
0.042882,18:03:29.366,5.499916,-0.057983,0.006409,0.837280,3.450382,-5.297710,0.702290
0.043676,18:03:29.367,5.499916,-0.057983,0.006409,0.837280,3.450382,-5.297710,0.702290
0.044471,18:03:29.368,5.499916,-0.057983,0.006409,0.837280,3.450382,-5.297710,0.702290
0.045265,18:03:29.369,5.499916,-0.057983,0.006409,0.837280,3.450382,-5.297710,0.702290
0.046059,18:03:29.370,5.499916,-0.057983,0.006409,0.837280,3.450382,-5.297710,0.702290
0.046853,18:03:29.370,5.499916,-0.057983,0.006409,0.837280,3.450382,-5.297710,0.702290
0.047647,18:03:29.371,5.499916,-0.043518,-0.009277,0.858582,-22.442749,2.732824,5.694656
0.048441,18:03:29.372,5.499916,-0.043518,-0.009277,0.858582,-22.442749,2.732824,5.694656
0.049235,18:03:29.373,5.499916,-0.043518,-0.009277,0.858582,-22.442749,2.732824,5.694656
0.050029,18:03:29.374,5.499916,-0.043518,-0.009277,0.858582,-22.442749,2.732824,5.694656
0.050824,18:03:29.374,5.499916,-0.043518,-0.009277,0.858582,-22.442749,2.732824,5.694656
0.051618,18:03:29.375,5.499916,-0.043518,-0.009277,0.858582,-22.442749,2.732824,5.694656
0.052412,18:03:29.376,-0.518486,-0.043518,-0.009277,0.858582,-22.442749,2.732824,5.694656
0.053206,18:03:29.377,0.784024,-0.043518,-0.009277,0.858582,-22.442749,2.732824,5.694656
0.054000,18:03:29.378,0.310018,-0.026428,-0.050537,0.904846,-43.511452,11.305344,8.648855
0.054794,18:03:29.378,-0.440101,-0.026428,-0.050537,0.904846,-43.511452,11.305344,8.648855
0.055588,18:03:29.379,-0.935088,-0.026428,-0.050537,0.904846,-43.511452,11.305344,8.648855
0.056382,18:03:29.380,-1.444343,-0.026428,-0.050537,0.904846,-43.511452,11.305344,8.648855
0.057176,18:03:29.381,-1.743786,-0.026428,-0.050537,0.904846,-43.511452,11.305344,8.648855
0.057971,18:03:29.382,-1.857252,-0.026428,-0.050537,0.904846,-43.511452,11.305344,8.648855
0.058765,18:03:29.382,-1.968704,-0.026428,-0.050537,0.904846,-43.511452,11.305344,8.648855
0.059559,18:03:29.383,-2.200671,-0.026428,-0.050537,0.904846,-43.511452,11.305344,8.648855
0.060353,18:03:29.384,-2.446067,-0.026428,-0.050537,0.904846,-43.511452,11.305344,8.648855
0.061147,18:03:29.385,-2.560204,-0.022827,-0.077820,0.923096,-57.580154,19.916031,9.427481
0.061941,18:03:29.385,-2.490043,-0.022827,-0.077820,0.923096,-57.580154,19.916031,9.427481
0.062735,18:03:29.386,-2.239109,-0.022827,-0.077820,0.923096,-57.580154,19.916031,9.427481
0.063529,18:03:29.387,-1.754864,-0.022827,-0.077820,0.923096,-57.580154,19.916031,9.427481
0.064324,18:03:29.388,-1.177798,-0.022827,-0.077820,0.923096,-57.580154,19.916031,9.427481
0.065118,18:03:29.389,-0.642023,-0.022827,-0.077820,0.923096,-57.580154,19.916031,9.427481
0.065912,18:03:29.389,-0.114977,-0.022827,-0.077820,0.923096,-57.580154,19.916031,9.427481
0.066706,18:03:29.390,0.196551,-0.022827,-0.077820,0.923096,-57.580154,19.916031,9.427481
0.067500,18:03:29.391,0.149218,-0.022827,-0.077820,0.923096,-57.580154,19.916031,9.427481
0.068294,18:03:29.392,-0.077211,-0.030396,-0.144104,0.953247,-64.870232,24.229008,9.175572
0.069088,18:03:29.393,-0.344091,-0.030396,-0.144104,0.953247,-64.870232,24.229008,9.175572
0.069882,18:03:29.393,-0.609125,-0.030396,-0.144104,0.953247,-64.870232,24.229008,9.175572
0.070676,18:03:29.394,-0.936431,-0.030396,-0.144104,0.953247,-64.870232,24.229008,9.175572
0.071471,18:03:29.395,-1.482612,-0.030396,-0.144104,0.953247,-64.870232,24.229008,9.175572
0.072265,18:03:29.396,-2.135714,-0.030396,-0.144104,0.953247,-64.870232,24.229008,9.175572
0.073059,18:03:29.397,-2.813825,-0.030396,-0.144104,0.953247,-64.870232,24.229008,9.175572
0.073853,18:03:29.397,-3.591806,-0.030396,-0.144104,0.953247,-64.870232,24.229008,9.175572
0.074647,18:03:29.398,-3.591806,-0.049500,-0.206543,0.976929,-65.236641,23.564886,8.702291
0.075441,18:03:29.399,-5.247974,-0.049500,-0.206543,0.976929,-65.236641,23.564886,8.702291
0.076235,18:03:29.400,-5.492866,-0.049500,-0.206543,0.976929,-65.236641,23.564886,8.702291
0.077029,18:03:29.401,-5.494209,-0.049500,-0.206543,0.976929,-65.236641,23.564886,8.702291
0.077824,18:03:29.401,-5.494209,-0.049500,-0.206543,0.976929,-65.236641,23.564886,8.702291
0.078618,18:03:29.402,-5.494713,-0.049500,-0.206543,0.976929,-65.236641,23.564886,8.702291
0.079412,18:03:29.403,-5.494881,-0.049500,-0.206543,0.976929,-65.236641,23.564886,8.702291
0.080206,18:03:29.404,-5.495048,-0.049500,-0.206543,0.976929,-65.236641,23.564886,8.702291
0.081000,18:03:29.405,-5.494881,-0.049500,-0.206543,0.976929,-65.236641,23.564886,8.702291
0.081794,18:03:29.405,-5.494881,-0.059387,-0.253906,1.002136,-57.618320,20.099237,7.106870
0.082588,18:03:29.406,-5.495048,-0.059387,-0.253906,1.002136,-57.618320,20.099237,7.106870
0.083382,18:03:29.407,-5.495048,-0.059387,-0.253906,1.002136,-57.618320,20.099237,7.106870
0.084176,18:03:29.408,-5.495048,-0.059387,-0.253906,1.002136,-57.618320,20.099237,7.106870
0.084971,18:03:29.409,-5.495048,-0.059387,-0.253906,1.002136,-57.618320,20.099237,7.106870
0.085765,18:03:29.409,-5.495048,-0.059387,-0.253906,1.002136,-57.618320,20.099237,7.106870
0.086559,18:03:29.410,-5.494881,-0.059387,-0.253906,1.002136,-57.618320,20.099237,7.106870
0.087353,18:03:29.411,-5.429084,-0.059387,-0.253906,1.002136,-57.618320,20.099237,7.106870
0.088147,18:03:29.412,-5.422370,-0.066223,-0.275269,1.014282,-39.473282,17.305344,4.694656
0.088941,18:03:29.412,-5.461646,-0.066223,-0.275269,1.014282,-39.473282,17.305344,4.694656
0.089735,18:03:29.413,-5.485817,-0.066223,-0.275269,1.014282,-39.473282,17.305344,4.694656
0.090529,18:03:29.414,-5.495048,-0.066223,-0.275269,1.014282,-39.473282,17.305344,4.694656
0.091324,18:03:29.415,-5.495048,-0.066223,-0.275269,1.014282,-39.473282,17.305344,4.694656
0.092118,18:03:29.416,-5.495048,-0.066223,-0.275269,1.014282,-39.473282,17.305344,4.694656
0.092912,18:03:29.416,-5.495048,-0.066223,-0.275269,1.014282,-39.473282,17.305344,4.694656
0.093706,18:03:29.417,-5.495048,-0.066223,-0.275269,1.014282,-39.473282,17.305344,4.694656
0.094500,18:03:29.418,-5.495048,-0.066223,-0.275269,1.014282,-39.473282,17.305344,4.694656
0.095294,18:03:29.419,-5.495216,-0.068665,-0.273254,1.020874,-14.694656,12.564885,2.442748
0.096088,18:03:29.420,-5.495048,-0.068665,-0.273254,1.020874,-14.694656,12.564885,2.442748
0.096882,18:03:29.420,-5.495048,-0.068665,-0.273254,1.020874,-14.694656,12.564885,2.442748
0.097676,18:03:29.421,-5.495048,-0.068665,-0.273254,1.020874,-14.694656,12.564885,2.442748
0.098471,18:03:29.422,-5.495216,-0.068665,-0.273254,1.020874,-14.694656,12.564885,2.442748
0.099265,18:03:29.423,-5.495216,-0.068665,-0.273254,1.020874,-14.694656,12.564885,2.442748
0.100059,18:03:29.424,-5.494881,-0.068665,-0.273254,1.020874,-14.694656,12.564885,2.442748
0.100853,18:03:29.424,-5.495216,-0.068665,-0.273254,1.020874,-14.694656,12.564885,2.442748
0.101647,18:03:29.425,-5.495216,-0.064026,-0.257263,1.018005,12.938931,7.290076,0.572519
0.102441,18:03:29.426,-5.495048,-0.064026,-0.257263,1.018005,12.938931,7.290076,0.572519
0.103235,18:03:29.427,-5.495216,-0.064026,-0.257263,1.018005,12.938931,7.290076,0.572519
0.104029,18:03:29.428,-4.986297,-0.064026,-0.257263,1.018005,12.938931,7.290076,0.572519
0.104824,18:03:29.428,-3.959228,-0.064026,-0.257263,1.018005,12.938931,7.290076,0.572519
0.105618,18:03:29.429,-2.950958,-0.064026,-0.257263,1.018005,12.938931,7.290076,0.572519
0.106412,18:03:29.430,-2.134874,-0.064026,-0.257263,1.018005,12.938931,7.290076,0.572519
0.107206,18:03:29.431,-1.707530,-0.064026,-0.257263,1.018005,12.938931,7.290076,0.572519
0.108000,18:03:29.432,-1.465827,-0.064026,-0.229065,0.997620,36.908398,3.229008,-1.022901
0.108794,18:03:29.432,-1.273472,-0.064026,-0.229065,0.997620,36.908398,3.229008,-1.022901
0.109588,18:03:29.433,-1.056275,-0.064026,-0.229065,0.997620,36.908398,3.229008,-1.022901
0.110382,18:03:29.434,-0.918639,-0.064026,-0.229065,0.997620,36.908398,3.229008,-1.022901
0.111176,18:03:29.435,-0.949859,-0.064026,-0.229065,0.997620,36.908398,3.229008,-1.022901
0.111971,18:03:29.436,-1.000549,-0.064026,-0.229065,0.997620,36.908398,3.229008,-1.022901
0.112765,18:03:29.436,-0.998199,-0.064026,-0.229065,0.997620,36.908398,3.229008,-1.022901
0.113559,18:03:29.437,-1.132143,-0.064026,-0.229065,0.997620,36.908398,3.229008,-1.022901
0.114353,18:03:29.438,-1.296635,-0.064026,-0.229065,0.997620,36.908398,3.229008,-1.022901
0.115147,18:03:29.439,-1.397345,-0.052063,-0.186340,0.966553,51.282444,-0.030534,-2.190840
0.115941,18:03:29.439,-1.478080,-0.052063,-0.186340,0.966553,51.282444,-0.030534,-2.190840
0.116735,18:03:29.440,-1.361257,-0.052063,-0.186340,0.966553,51.282444,-0.030534,-2.190840
0.117529,18:03:29.441,-1.000214,-0.052063,-0.186340,0.966553,51.282444,-0.030534,-2.190840
0.118324,18:03:29.442,-0.597040,-0.052063,-0.186340,0.966553,51.282444,-0.030534,-2.190840
0.119118,18:03:29.443,-0.303304,-0.052063,-0.186340,0.966553,51.282444,-0.030534,-2.190840
0.119912,18:03:29.443,-0.209644,-0.052063,-0.186340,0.966553,51.282444,-0.030534,-2.190840
0.120706,18:03:29.444,-0.059922,-0.052063,-0.186340,0.966553,51.282444,-0.030534,-2.190840
0.121500,18:03:29.445,0.324956,-0.044373,-0.142517,0.926331,54.572517,-1.343511,-2.900763
0.122294,18:03:29.446,0.919310,-0.044373,-0.142517,0.926331,54.572517,-1.343511,-2.900763
0.123088,18:03:29.447,1.722637,-0.044373,-0.142517,0.926331,54.572517,-1.343511,-2.900763
0.123882,18:03:29.447,2.688106,-0.044373,-0.142517,0.926331,54.572517,-1.343511,-2.900763
0.124676,18:03:29.448,3.584253,-0.044373,-0.142517,0.926331,54.572517,-1.343511,-2.900763
0.125471,18:03:29.449,4.399832,-0.044373,-0.142517,0.926331,54.572517,-1.343511,-2.900763
0.126265,18:03:29.450,5.051423,-0.044373,-0.142517,0.926331,54.572517,-1.343511,-2.900763
0.127059,18:03:29.451,5.271641,-0.044373,-0.142517,0.926331,54.572517,-1.343511,-2.900763
0.127853,18:03:29.451,5.213901,-0.044373,-0.142517,0.926331,54.572517,-1.343511,-2.900763
0.128647,18:03:29.452,5.068879,-0.035095,-0.095825,0.894897,48.786259,-1.870229,-3.610687
0.129441,18:03:29.453,4.870817,-0.035095,-0.095825,0.894897,48.786259,-1.870229,-3.610687
0.130235,18:03:29.454,4.622065,-0.035095,-0.095825,0.894897,48.786259,-1.870229,-3.610687
0.131029,18:03:29.455,4.251118,-0.035095,-0.095825,0.894897,48.786259,-1.870229,-3.610687
0.131824,18:03:29.455,3.816724,-0.035095,-0.095825,0.894897,48.786259,-1.870229,-3.610687
0.132618,18:03:29.456,3.816724,-0.035095,-0.095825,0.894897,48.786259,-1.870229,-3.610687
0.133412,18:03:29.457,2.838499,-0.035095,-0.095825,0.894897,48.786259,-1.870229,-3.610687
0.134206,18:03:29.458,2.169787,-0.035095,-0.095825,0.894897,48.786259,-1.870229,-3.610687
0.135000,18:03:29.459,1.516518,-0.035095,-0.095825,0.894897,48.786259,-1.870229,-3.610687
0.135794,18:03:29.459,0.894804,-0.029968,-0.067322,0.882507,37.862595,-2.007634,-3.244275
0.136588,18:03:29.460,0.434897,-0.029968,-0.067322,0.882507,37.862595,-2.007634,-3.244275
0.137382,18:03:29.461,0.220050,-0.029968,-0.067322,0.882507,37.862595,-2.007634,-3.244275
0.138176,18:03:29.462,0.114641,-0.029968,-0.067322,0.882507,37.862595,-2.007634,-3.244275
0.138971,18:03:29.463,0.114641,-0.029968,-0.067322,0.882507,37.862595,-2.007634,-3.244275
0.139765,18:03:29.463,-0.314717,-0.029968,-0.067322,0.882507,37.862595,-2.007634,-3.244275
0.140559,18:03:29.464,-0.591669,-0.029968,-0.067322,0.882507,37.862595,-2.007634,-3.244275
0.141353,18:03:29.465,-0.624567,-0.029968,-0.067322,0.882507,37.862595,-2.007634,-3.244275
0.142147,18:03:29.466,-0.387060,-0.026855,-0.048828,0.894531,24.229008,-1.076336,-1.007634
0.142941,18:03:29.466,0.105913,-0.026855,-0.048828,0.894531,24.229008,-1.076336,-1.007634
0.143735,18:03:29.467,0.824308,-0.026855,-0.048828,0.894531,24.229008,-1.076336,-1.007634
0.144529,18:03:29.468,1.544717,-0.026855,-0.048828,0.894531,24.229008,-1.076336,-1.007634
0.145324,18:03:29.469,2.197986,-0.026855,-0.048828,0.894531,24.229008,-1.076336,-1.007634
0.146118,18:03:29.470,2.778073,-0.026855,-0.048828,0.894531,24.229008,-1.076336,-1.007634
0.146912,18:03:29.470,3.000305,-0.026855,-0.048828,0.894531,24.229008,-1.076336,-1.007634
0.147706,18:03:29.471,2.933837,-0.026855,-0.048828,0.894531,24.229008,-1.076336,-1.007634
0.148500,18:03:29.472,2.752560,-0.019348,-0.050537,0.912354,9.816793,3.503817,1.984733
0.149294,18:03:29.473,2.752560,-0.019348,-0.050537,0.912354,9.816793,3.503817,1.984733
0.150088,18:03:29.474,2.308766,-0.019348,-0.050537,0.912354,9.816793,3.503817,1.984733
0.150882,18:03:29.474,1.908614,-0.019348,-0.050537,0.912354,9.816793,3.503817,1.984733
0.151676,18:03:29.475,1.409766,-0.019348,-0.050537,0.912354,9.816793,3.503817,1.984733
0.152471,18:03:29.476,0.941634,-0.019348,-0.050537,0.912354,9.816793,3.503817,1.984733
0.153265,18:03:29.477,0.397971,-0.019348,-0.050537,0.912354,9.816793,3.503817,1.984733
0.154059,18:03:29.478,-0.299611,-0.019348,-0.050537,0.912354,9.816793,3.503817,1.984733
0.154853,18:03:29.478,-0.952377,-0.019348,-0.050537,0.912354,9.816793,3.503817,1.984733
0.155647,18:03:29.479,-0.952377,-0.018311,-0.071106,0.915161,-4.458015,10.557252,5.091603
0.156441,18:03:29.480,-2.062364,-0.018311,-0.071106,0.915161,-4.458015,10.557252,5.091603
0.157235,18:03:29.481,-2.329244,-0.018311,-0.071106,0.915161,-4.458015,10.557252,5.091603
0.158029,18:03:29.482,-2.458656,-0.018311,-0.071106,0.915161,-4.458015,10.557252,5.091603
0.158824,18:03:29.482,-2.595621,-0.018311,-0.071106,0.915161,-4.458015,10.557252,5.091603
0.159618,18:03:29.483,-2.856291,-0.018311,-0.071106,0.915161,-4.458015,10.557252,5.091603
0.160412,18:03:29.484,-3.153887,-0.018311,-0.071106,0.915161,-4.458015,10.557252,5.091603
0.161206,18:03:29.485,-3.236973,-0.018311,-0.071106,0.915161,-4.458015,10.557252,5.091603
0.162000,18:03:29.486,-3.043275,-0.018311,-0.071106,0.915161,-4.458015,10.557252,5.091603
0.162794,18:03:29.486,-2.598474,-0.021362,-0.083435,0.916870,-17.114504,15.847328,7.412214
0.163588,18:03:29.487,-1.878737,-0.021362,-0.083435,0.916870,-17.114504,15.847328,7.412214
0.164382,18:03:29.488,-1.107469,-0.021362,-0.083435,0.916870,-17.114504,15.847328,7.412214
0.165176,18:03:29.489,-0.408545,-0.021362,-0.083435,0.916870,-17.114504,15.847328,7.412214
0.165971,18:03:29.490,-0.408545,-0.021362,-0.083435,0.916870,-17.114504,15.847328,7.412214
0.166765,18:03:29.490,0.663844,-0.021362,-0.083435,0.916870,-17.114504,15.847328,7.412214
0.167559,18:03:29.491,0.720241,-0.021362,-0.083435,0.916870,-17.114504,15.847328,7.412214
0.168353,18:03:29.492,0.704799,-0.021362,-0.083435,0.916870,-17.114504,15.847328,7.412214
0.169147,18:03:29.493,0.659815,-0.034424,-0.111755,0.925537,-25.061069,17.595419,8.282443
0.169941,18:03:29.493,0.601740,-0.034424,-0.111755,0.925537,-25.061069,17.595419,8.282443
0.170735,18:03:29.494,0.417441,-0.034424,-0.111755,0.925537,-25.061069,17.595419,8.282443
0.171529,18:03:29.495,0.133944,-0.034424,-0.111755,0.925537,-25.061069,17.595419,8.282443
0.172324,18:03:29.496,0.133944,-0.034424,-0.111755,0.925537,-25.061069,17.595419,8.282443
0.173118,18:03:29.497,-0.392935,-0.034424,-0.111755,0.925537,-25.061069,17.595419,8.282443
0.173912,18:03:29.497,-0.814237,-0.034424,-0.111755,0.925537,-25.061069,17.595419,8.282443
0.174706,18:03:29.498,-1.203311,-0.034424,-0.111755,0.925537,-25.061069,17.595419,8.282443
0.175500,18:03:29.499,-1.547570,-0.044739,-0.139282,0.947266,-26.129770,17.526718,7.961832
0.176294,18:03:29.500,-1.812268,-0.044739,-0.139282,0.947266,-26.129770,17.526718,7.961832
0.177088,18:03:29.501,-1.828717,-0.044739,-0.139282,0.947266,-26.129770,17.526718,7.961832
0.177882,18:03:29.501,-1.718944,-0.044739,-0.139282,0.947266,-26.129770,17.526718,7.961832
0.178676,18:03:29.502,-1.622599,-0.044739,-0.139282,0.947266,-26.129770,17.526718,7.961832
0.179471,18:03:29.503,-1.656840,-0.044739,-0.139282,0.947266,-26.129770,17.526718,7.961832
0.180265,18:03:29.504,-1.784741,-0.044739,-0.139282,0.947266,-26.129770,17.526718,7.961832
0.181059,18:03:29.505,-1.762585,-0.044739,-0.139282,0.947266,-26.129770,17.526718,7.961832
0.181853,18:03:29.505,-1.495705,-0.044739,-0.139282,0.947266,-26.129770,17.526718,7.961832
0.182647,18:03:29.506,-1.495705,-0.053650,-0.161255,0.964111,-22.198473,15.549619,6.419847
0.183441,18:03:29.507,-0.263355,-0.053650,-0.161255,0.964111,-22.198473,15.549619,6.419847
0.184235,18:03:29.508,0.545342,-0.053650,-0.161255,0.964111,-22.198473,15.549619,6.419847
0.185029,18:03:29.509,1.241245,-0.053650,-0.161255,0.964111,-22.198473,15.549619,6.419847
0.185824,18:03:29.509,1.880415,-0.053650,-0.161255,0.964111,-22.198473,15.549619,6.419847
0.186618,18:03:29.510,2.256397,-0.053650,-0.161255,0.964111,-22.198473,15.549619,6.419847
0.187412,18:03:29.511,2.243305,-0.053650,-0.161255,0.964111,-22.198473,15.549619,6.419847
0.188206,18:03:29.512,2.104494,-0.053650,-0.161255,0.964111,-22.198473,15.549619,6.419847
0.189000,18:03:29.513,2.104494,-0.053650,-0.161255,0.964111,-22.198473,15.549619,6.419847
0.189794,18:03:29.513,1.680674,-0.060181,-0.171997,0.973999,-11.877863,12.549619,3.839695
0.190588,18:03:29.514,1.322484,-0.060181,-0.171997,0.973999,-11.877863,12.549619,3.839695
0.191382,18:03:29.515,0.821622,-0.060181,-0.171997,0.973999,-11.877863,12.549619,3.839695
0.192176,18:03:29.516,0.326802,-0.060181,-0.171997,0.973999,-11.877863,12.549619,3.839695
0.192971,18:03:29.517,-0.179599,-0.060181,-0.171997,0.973999,-11.877863,12.549619,3.839695
0.193765,18:03:29.517,-0.836057,-0.060181,-0.171997,0.973999,-11.877863,12.549619,3.839695
0.194559,18:03:29.518,-1.521553,-0.060181,-0.171997,0.973999,-11.877863,12.549619,3.839695
0.195353,18:03:29.519,-1.521553,-0.060181,-0.171997,0.973999,-11.877863,12.549619,3.839695
0.196147,18:03:29.520,-2.659739,-0.059143,-0.175659,0.981995,1.580153,9.175572,1.534351
0.196941,18:03:29.520,-2.950790,-0.059143,-0.175659,0.981995,1.580153,9.175572,1.534351
0.197735,18:03:29.521,-3.069795,-0.059143,-0.175659,0.981995,1.580153,9.175572,1.534351
0.198529,18:03:29.522,-3.160769,-0.059143,-0.175659,0.981995,1.580153,9.175572,1.534351
0.199324,18:03:29.523,-3.337346,-0.059143,-0.175659,0.981995,1.580153,9.175572,1.534351
0.200118,18:03:29.524,-3.604059,-0.059143,-0.175659,0.981995,1.580153,9.175572,1.534351
0.200912,18:03:29.524,-3.740520,-0.059143,-0.175659,0.981995,1.580153,9.175572,1.534351
0.201706,18:03:29.525,-3.605402,-0.059143,-0.175659,0.981995,1.580153,9.175572,1.534351
0.202500,18:03:29.526,-3.223880,-0.054688,-0.169800,0.977295,14.664123,5.679389,-0.007634
0.203294,18:03:29.527,-2.588067,-0.054688,-0.169800,0.977295,14.664123,5.679389,-0.007634
0.204088,18:03:29.528,-1.809247,-0.054688,-0.169800,0.977295,14.664123,5.679389,-0.007634
0.204882,18:03:29.528,-1.124086,-0.054688,-0.169800,0.977295,14.664123,5.679389,-0.007634
0.205676,18:03:29.529,-0.440940,-0.054688,-0.169800,0.977295,14.664123,5.679389,-0.007634
0.206471,18:03:29.530,0.073182,-0.054688,-0.169800,0.977295,14.664123,5.679389,-0.007634
0.207265,18:03:29.531,0.149889,-0.054688,-0.169800,0.977295,14.664123,5.679389,-0.007634
0.208059,18:03:29.532,0.036088,-0.054688,-0.169800,0.977295,14.664123,5.679389,-0.007634
0.208853,18:03:29.532,-0.155261,-0.054688,-0.169800,0.977295,14.664123,5.679389,-0.007634
0.209647,18:03:29.533,-0.339895,-0.046387,-0.152100,0.960327,23.564886,3.137405,-1.068702
0.210441,18:03:29.534,-0.546014,-0.046387,-0.152100,0.960327,23.564886,3.137405,-1.068702
0.211235,18:03:29.535,-0.847135,-0.046387,-0.152100,0.960327,23.564886,3.137405,-1.068702
0.212029,18:03:29.536,-1.178134,-0.046387,-0.152100,0.960327,23.564886,3.137405,-1.068702
0.212824,18:03:29.536,-1.528771,-0.046387,-0.152100,0.960327,23.564886,3.137405,-1.068702
0.213618,18:03:29.537,-2.007813,-0.046387,-0.152100,0.960327,23.564886,3.137405,-1.068702
0.214412,18:03:29.538,-2.570443,-0.046387,-0.152100,0.960327,23.564886,3.137405,-1.068702
0.215206,18:03:29.539,-3.027832,-0.046387,-0.152100,0.960327,23.564886,3.137405,-1.068702
0.216000,18:03:29.540,-3.401801,-0.038269,-0.135742,0.941101,26.862595,2.412214,-0.977099
0.216794,18:03:29.540,-3.557900,-0.038269,-0.135742,0.941101,26.862595,2.412214,-0.977099
0.217588,18:03:29.541,-3.474479,-0.038269,-0.135742,0.941101,26.862595,2.412214,-0.977099
0.218382,18:03:29.542,-3.310491,-0.038269,-0.135742,0.941101,26.862595,2.412214,-0.977099
0.219176,18:03:29.543,-3.166644,-0.038269,-0.135742,0.941101,26.862595,2.412214,-0.977099
0.219971,18:03:29.544,-3.118975,-0.038269,-0.135742,0.941101,26.862595,2.412214,-0.977099
0.220765,18:03:29.544,-2.961028,-0.038269,-0.135742,0.941101,26.862595,2.412214,-0.977099
0.221559,18:03:29.545,-2.560708,-0.038269,-0.135742,0.941101,26.862595,2.412214,-0.977099
0.222353,18:03:29.546,-1.912306,-0.038269,-0.135742,0.941101,26.862595,2.412214,-0.977099
0.223147,18:03:29.547,-1.000549,-0.032227,-0.116638,0.924377,24.419847,3.145038,-0.625954
0.223941,18:03:29.547,0.121355,-0.032227,-0.116638,0.924377,24.419847,3.145038,-0.625954
0.224735,18:03:29.548,1.224125,-0.032227,-0.116638,0.924377,24.419847,3.145038,-0.625954
0.225529,18:03:29.549,2.289631,-0.032227,-0.116638,0.924377,24.419847,3.145038,-0.625954
0.226324,18:03:29.550,3.256107,-0.032227,-0.116638,0.924377,24.419847,3.145038,-0.625954
0.227118,18:03:29.551,3.911391,-0.032227,-0.116638,0.924377,24.419847,3.145038,-0.625954
0.227912,18:03:29.551,4.402853,-0.032227,-0.116638,0.924377,24.419847,3.145038,-0.625954
0.228706,18:03:29.552,4.810224,-0.032227,-0.116638,0.924377,24.419847,3.145038,-0.625954
0.229500,18:03:29.553,5.165225,-0.030029,-0.104492,0.911926,18.244274,3.832061,-0.068702
0.230294,18:03:29.554,5.467018,-0.030029,-0.104492,0.911926,18.244274,3.832061,-0.068702
0.231088,18:03:29.555,5.499916,-0.030029,-0.104492,0.911926,18.244274,3.832061,-0.068702
0.231882,18:03:29.555,5.499916,-0.030029,-0.104492,0.911926,18.244274,3.832061,-0.068702
0.232676,18:03:29.556,5.499916,-0.030029,-0.104492,0.911926,18.244274,3.832061,-0.068702
0.233471,18:03:29.557,5.499916,-0.030029,-0.104492,0.911926,18.244274,3.832061,-0.068702
0.234265,18:03:29.558,5.499916,-0.030029,-0.104492,0.911926,18.244274,3.832061,-0.068702
0.235059,18:03:29.559,5.442176,-0.030029,-0.104492,0.911926,18.244274,3.832061,-0.068702
0.235853,18:03:29.559,5.258885,-0.030029,-0.104492,0.911926,18.244274,3.832061,-0.068702
0.236647,18:03:29.560,5.199634,-0.027893,-0.103638,0.914307,10.000000,4.900764,0.633588
0.237441,18:03:29.561,5.290440,-0.027893,-0.103638,0.914307,10.000000,4.900764,0.633588
0.238235,18:03:29.562,5.411963,-0.027893,-0.103638,0.914307,10.000000,4.900764,0.633588
0.239029,18:03:29.563,5.491188,-0.027893,-0.103638,0.914307,10.000000,4.900764,0.633588
0.239824,18:03:29.563,5.346166,-0.027893,-0.103638,0.914307,10.000000,4.900764,0.633588
0.240618,18:03:29.564,5.152132,-0.027893,-0.103638,0.914307,10.000000,4.900764,0.633588
0.241412,18:03:29.565,5.156161,-0.027893,-0.103638,0.914307,10.000000,4.900764,0.633588
0.242206,18:03:29.566,5.499916,-0.027893,-0.103638,0.914307,10.000000,4.900764,0.633588
0.243000,18:03:29.567,5.499916,-0.021240,-0.106873,0.917847,2.106870,6.610687,1.190840
0.243794,18:03:29.567,5.499916,-0.021240,-0.106873,0.917847,2.106870,6.610687,1.190840
0.244588,18:03:29.568,5.499916,-0.021240,-0.106873,0.917847,2.106870,6.610687,1.190840
0.245382,18:03:29.569,5.499916,-0.021240,-0.106873,0.917847,2.106870,6.610687,1.190840
0.246176,18:03:29.570,5.499916,-0.021240,-0.106873,0.917847,2.106870,6.610687,1.190840
0.246971,18:03:29.571,5.499916,-0.021240,-0.106873,0.917847,2.106870,6.610687,1.190840
0.247765,18:03:29.571,5.499916,-0.021240,-0.106873,0.917847,2.106870,6.610687,1.190840
0.248559,18:03:29.572,5.499916,-0.021240,-0.106873,0.917847,2.106870,6.610687,1.190840
0.249353,18:03:29.573,5.499916,-0.021240,-0.106873,0.917847,2.106870,6.610687,1.190840
0.250147,18:03:29.574,5.499916,-0.023132,-0.120178,0.925354,-4.725191,8.106871,1.557252
0.250941,18:03:29.574,5.499916,-0.023132,-0.120178,0.925354,-4.725191,8.106871,1.557252
0.251735,18:03:29.575,5.499916,-0.023132,-0.120178,0.925354,-4.725191,8.106871,1.557252
0.252529,18:03:29.576,5.499916,-0.023132,-0.120178,0.925354,-4.725191,8.106871,1.557252
0.253324,18:03:29.577,5.499916,-0.023132,-0.120178,0.925354,-4.725191,8.106871,1.557252
0.254118,18:03:29.578,5.499916,-0.023132,-0.120178,0.925354,-4.725191,8.106871,1.557252
0.254912,18:03:29.578,5.499916,-0.023132,-0.120178,0.925354,-4.725191,8.106871,1.557252
0.255706,18:03:29.579,5.499916,-0.023132,-0.120178,0.925354,-4.725191,8.106871,1.557252
0.256500,18:03:29.580,0.959091,-0.023560,-0.127075,0.932312,-8.732824,8.152672,1.671756
0.257294,18:03:29.581,3.684459,-0.023560,-0.127075,0.932312,-8.732824,8.152672,1.671756
0.258088,18:03:29.582,5.499916,-0.023560,-0.127075,0.932312,-8.732824,8.152672,1.671756
0.258882,18:03:29.582,3.882856,-0.023560,-0.127075,0.932312,-8.732824,8.152672,1.671756
0.259676,18:03:29.583,-0.346609,-0.023560,-0.127075,0.932312,-8.732824,8.152672,1.671756
0.260471,18:03:29.584,0.837568,-0.023560,-0.127075,0.932312,-8.732824,8.152672,1.671756
0.261265,18:03:29.585,0.837568,-0.023560,-0.127075,0.932312,-8.732824,8.152672,1.671756
0.262059,18:03:29.586,0.156939,-0.023560,-0.127075,0.932312,-8.732824,8.152672,1.671756
0.262853,18:03:29.586,0.414420,-0.023560,-0.127075,0.932312,-8.732824,8.152672,1.671756
0.263647,18:03:29.587,0.904875,-0.025818,-0.143066,0.945862,-8.229008,7.557252,1.374046
0.264441,18:03:29.588,1.373510,-0.025818,-0.143066,0.945862,-8.229008,7.557252,1.374046
0.265235,18:03:29.589,1.373510,-0.025818,-0.143066,0.945862,-8.229008,7.557252,1.374046
0.266029,18:03:29.590,2.046250,-0.025818,-0.143066,0.945862,-8.229008,7.557252,1.374046
0.266824,18:03:29.590,1.851545,-0.025818,-0.143066,0.945862,-8.229008,7.557252,1.374046
0.267618,18:03:29.591,1.290929,-0.025818,-0.143066,0.945862,-8.229008,7.557252,1.374046
0.268412,18:03:29.592,0.667872,-0.025818,-0.143066,0.945862,-8.229008,7.557252,1.374046
0.269206,18:03:29.593,0.060929,-0.025818,-0.143066,0.945862,-8.229008,7.557252,1.374046
0.270000,18:03:29.594,-0.577234,-0.025818,-0.143066,0.945862,-8.229008,7.557252,1.374046
0.270794,18:03:29.594,-1.434272,-0.024353,-0.152405,0.966675,-6.122138,7.022901,0.992366
0.271588,18:03:29.595,-2.372045,-0.024353,-0.152405,0.966675,-6.122138,7.022901,0.992366
0.272382,18:03:29.596,-3.311498,-0.024353,-0.152405,0.966675,-6.122138,7.022901,0.992366
0.273176,18:03:29.597,-4.501381,-0.024353,-0.152405,0.966675,-6.122138,7.022901,0.992366
0.273971,18:03:29.598,-5.489509,-0.024353,-0.152405,0.966675,-6.122138,7.022901,0.992366
0.274765,18:03:29.598,-5.493874,-0.024353,-0.152405,0.966675,-6.122138,7.022901,0.992366
0.275559,18:03:29.599,-5.494377,-0.024353,-0.152405,0.966675,-6.122138,7.022901,0.992366
0.276353,18:03:29.600,-5.494545,-0.024353,-0.152405,0.966675,-6.122138,7.022901,0.992366
0.277147,18:03:29.601,-5.494545,-0.022827,-0.158752,0.974304,1.213740,5.824428,0.358779
0.277941,18:03:29.601,-5.494545,-0.022827,-0.158752,0.974304,1.213740,5.824428,0.358779
0.278735,18:03:29.602,-5.494881,-0.022827,-0.158752,0.974304,1.213740,5.824428,0.358779
0.279529,18:03:29.603,-5.495048,-0.022827,-0.158752,0.974304,1.213740,5.824428,0.358779
0.280324,18:03:29.604,-5.495048,-0.022827,-0.158752,0.974304,1.213740,5.824428,0.358779
0.281118,18:03:29.605,-5.495216,-0.022827,-0.158752,0.974304,1.213740,5.824428,0.358779
0.281912,18:03:29.605,-5.495216,-0.022827,-0.158752,0.974304,1.213740,5.824428,0.358779
0.282706,18:03:29.606,-5.495048,-0.022827,-0.158752,0.974304,1.213740,5.824428,0.358779
0.283500,18:03:29.607,-5.494881,-0.023743,-0.159851,0.968018,9.053435,4.335878,-0.083969
0.284294,18:03:29.608,-5.495048,-0.023743,-0.159851,0.968018,9.053435,4.335878,-0.083969
0.285088,18:03:29.609,-5.495216,-0.023743,-0.159851,0.968018,9.053435,4.335878,-0.083969
0.285882,18:03:29.609,-5.495048,-0.023743,-0.159851,0.968018,9.053435,4.335878,-0.083969
0.286676,18:03:29.610,-5.495216,-0.023743,-0.159851,0.968018,9.053435,4.335878,-0.083969
0.287471,18:03:29.611,-5.495216,-0.023743,-0.159851,0.968018,9.053435,4.335878,-0.083969
0.288265,18:03:29.612,-5.495216,-0.023743,-0.159851,0.968018,9.053435,4.335878,-0.083969
0.289059,18:03:29.613,-5.494881,-0.023743,-0.159851,0.968018,9.053435,4.335878,-0.083969
0.289853,18:03:29.613,-5.495216,-0.023743,-0.159851,0.968018,9.053435,4.335878,-0.083969
0.290647,18:03:29.614,-5.495048,-0.023560,-0.152954,0.962463,15.328244,3.099237,-0.076336
0.291441,18:03:29.615,-5.495048,-0.023560,-0.152954,0.962463,15.328244,3.099237,-0.076336
0.292235,18:03:29.616,-5.495216,-0.023560,-0.152954,0.962463,15.328244,3.099237,-0.076336
0.293029,18:03:29.617,-5.495216,-0.023560,-0.152954,0.962463,15.328244,3.099237,-0.076336
0.293824,18:03:29.617,-5.495216,-0.023560,-0.152954,0.962463,15.328244,3.099237,-0.076336
0.294618,18:03:29.618,-5.495216,-0.023560,-0.152954,0.962463,15.328244,3.099237,-0.076336
0.295412,18:03:29.619,-5.494881,-0.023560,-0.152954,0.962463,15.328244,3.099237,-0.076336
0.296206,18:03:29.620,-5.495048,-0.023560,-0.152954,0.962463,15.328244,3.099237,-0.076336
0.297000,18:03:29.621,-5.495216,-0.019470,-0.143188,0.950623,19.129770,1.984733,0.053435
0.297794,18:03:29.621,-5.495216,-0.019470,-0.143188,0.950623,19.129770,1.984733,0.053435
0.298588,18:03:29.622,-5.495216,-0.019470,-0.143188,0.950623,19.129770,1.984733,0.053435
0.299382,18:03:29.623,-5.495384,-0.019470,-0.143188,0.950623,19.129770,1.984733,0.053435
0.300176,18:03:29.624,-5.495048,-0.019470,-0.143188,0.950623,19.129770,1.984733,0.053435
0.300971,18:03:29.625,-5.495048,-0.019470,-0.143188,0.950623,19.129770,1.984733,0.053435
0.301765,18:03:29.625,-5.495216,-0.019470,-0.143188,0.950623,19.129770,1.984733,0.053435
0.302559,18:03:29.626,-5.495216,-0.019470,-0.143188,0.950623,19.129770,1.984733,0.053435
0.303353,18:03:29.627,-5.495216,-0.019470,-0.143188,0.950623,19.129770,1.984733,0.053435
0.304147,18:03:29.628,-5.495216,-0.011597,-0.136963,0.940613,20.175573,2.488550,0.229008
0.304941,18:03:29.628,-5.495216,-0.011597,-0.136963,0.940613,20.175573,2.488550,0.229008
0.305735,18:03:29.629,-5.495216,-0.011597,-0.136963,0.940613,20.175573,2.488550,0.229008
0.306529,18:03:29.630,-5.495216,-0.011597,-0.136963,0.940613,20.175573,2.488550,0.229008
0.307324,18:03:29.631,-5.495048,-0.011597,-0.136963,0.940613,20.175573,2.488550,0.229008
0.308118,18:03:29.632,-5.495048,-0.011597,-0.136963,0.940613,20.175573,2.488550,0.229008
0.308912,18:03:29.632,-5.494881,-0.011597,-0.136963,0.940613,20.175573,2.488550,0.229008
0.309706,18:03:29.633,-5.495048,-0.011597,-0.136963,0.940613,20.175573,2.488550,0.229008
0.310500,18:03:29.634,-5.038163,-0.003967,-0.123535,0.940247,19.480917,3.648855,0.015267
0.311294,18:03:29.635,-5.038163,-0.003967,-0.123535,0.940247,19.480917,3.648855,0.015267
0.312088,18:03:29.636,-2.947097,-0.003967,-0.123535,0.940247,19.480917,3.648855,0.015267
0.312882,18:03:29.636,-1.886793,-0.003967,-0.123535,0.940247,19.480917,3.648855,0.015267
0.313676,18:03:29.637,-0.965133,-0.003967,-0.123535,0.940247,19.480917,3.648855,0.015267
0.314471,18:03:29.638,0.026688,-0.003967,-0.123535,0.940247,19.480917,3.648855,0.015267
0.315265,18:03:29.639,0.026688,-0.003967,-0.123535,0.940247,19.480917,3.648855,0.015267
0.316059,18:03:29.640,2.103319,-0.003967,-0.123535,0.940247,19.480917,3.648855,0.015267
0.316853,18:03:29.640,3.436545,-0.003967,-0.123535,0.940247,19.480917,3.648855,0.015267
0.317647,18:03:29.641,4.874174,-0.000610,-0.116028,0.934204,17.954199,5.290076,-0.442748
0.318441,18:03:29.642,5.499916,-0.000610,-0.116028,0.934204,17.954199,5.290076,-0.442748
0.319235,18:03:29.643,5.499916,-0.000610,-0.116028,0.934204,17.954199,5.290076,-0.442748
0.320029,18:03:29.644,5.499916,-0.000610,-0.116028,0.934204,17.954199,5.290076,-0.442748
0.320824,18:03:29.644,5.499916,-0.000610,-0.116028,0.934204,17.954199,5.290076,-0.442748
0.321618,18:03:29.645,5.499916,-0.000610,-0.116028,0.934204,17.954199,5.290076,-0.442748
0.322412,18:03:29.646,5.499916,-0.000610,-0.116028,0.934204,17.954199,5.290076,-0.442748
0.323206,18:03:29.647,5.499916,-0.000610,-0.116028,0.934204,17.954199,5.290076,-0.442748
0.324000,18:03:29.648,5.499916,-0.000610,-0.116028,0.934204,17.954199,5.290076,-0.442748
0.324794,18:03:29.648,5.499916,0.001038,-0.112244,0.927002,15.450381,6.076336,-0.961832
0.325588,18:03:29.649,5.499916,0.001038,-0.112244,0.927002,15.450381,6.076336,-0.961832
0.326382,18:03:29.650,5.499916,0.001038,-0.112244,0.927002,15.450381,6.076336,-0.961832
0.327176,18:03:29.651,5.499916,0.001038,-0.112244,0.927002,15.450381,6.076336,-0.961832
0.327971,18:03:29.652,5.499916,0.001038,-0.112244,0.927002,15.450381,6.076336,-0.961832
0.328765,18:03:29.652,5.499916,0.001038,-0.112244,0.927002,15.450381,6.076336,-0.961832
0.329559,18:03:29.653,5.499916,0.001038,-0.112244,0.927002,15.450381,6.076336,-0.961832
0.330353,18:03:29.654,5.499916,0.001038,-0.112244,0.927002,15.450381,6.076336,-0.961832
0.331147,18:03:29.655,5.499916,0.001038,-0.109985,0.932251,13.007633,6.595420,-0.969466
0.331941,18:03:29.655,5.499916,0.001038,-0.109985,0.932251,13.007633,6.595420,-0.969466
0.332735,18:03:29.656,5.499916,0.001038,-0.109985,0.932251,13.007633,6.595420,-0.969466
0.333529,18:03:29.657,5.499916,0.001038,-0.109985,0.932251,13.007633,6.595420,-0.969466
0.334324,18:03:29.658,5.499916,0.001038,-0.109985,0.932251,13.007633,6.595420,-0.969466
0.335118,18:03:29.659,5.499916,0.001038,-0.109985,0.932251,13.007633,6.595420,-0.969466
0.335912,18:03:29.659,5.499916,0.001038,-0.109985,0.932251,13.007633,6.595420,-0.969466
0.336706,18:03:29.660,5.499916,0.001038,-0.109985,0.932251,13.007633,6.595420,-0.969466
0.337500,18:03:29.661,5.499916,0.005554,-0.104980,0.938843,11.015267,7.152672,-0.587786
0.338294,18:03:29.662,5.499916,0.005554,-0.104980,0.938843,11.015267,7.152672,-0.587786
0.339088,18:03:29.663,5.499916,0.005554,-0.104980,0.938843,11.015267,7.152672,-0.587786
0.339882,18:03:29.663,5.499916,0.005554,-0.104980,0.938843,11.015267,7.152672,-0.587786
0.340676,18:03:29.664,5.499916,0.005554,-0.104980,0.938843,11.015267,7.152672,-0.587786
0.341471,18:03:29.665,5.499916,0.005554,-0.104980,0.938843,11.015267,7.152672,-0.587786
0.342265,18:03:29.666,5.499916,0.005554,-0.104980,0.938843,11.015267,7.152672,-0.587786
0.343059,18:03:29.667,5.499916,0.005554,-0.104980,0.938843,11.015267,7.152672,-0.587786
0.343853,18:03:29.667,5.499916,0.005554,-0.104980,0.938843,11.015267,7.152672,-0.587786
0.344647,18:03:29.668,5.499916,0.003235,-0.104004,0.939392,9.694656,6.832061,0.282443
0.345441,18:03:29.669,5.499916,0.003235,-0.104004,0.939392,9.694656,6.832061,0.282443
0.346235,18:03:29.670,5.499916,0.003235,-0.104004,0.939392,9.694656,6.832061,0.282443
0.347029,18:03:29.671,5.499916,0.003235,-0.104004,0.939392,9.694656,6.832061,0.282443
0.347824,18:03:29.671,5.499916,0.003235,-0.104004,0.939392,9.694656,6.832061,0.282443
0.348618,18:03:29.672,5.499916,0.003235,-0.104004,0.939392,9.694656,6.832061,0.282443
0.349412,18:03:29.673,5.499916,0.003235,-0.104004,0.939392,9.694656,6.832061,0.282443
0.350206,18:03:29.674,5.499916,0.003235,-0.104004,0.939392,9.694656,6.832061,0.282443
0.351000,18:03:29.675,5.499916,0.000305,-0.107056,0.940613,7.755725,6.274809,1.175573
0.351794,18:03:29.675,5.499916,0.000305,-0.107056,0.940613,7.755725,6.274809,1.175573
0.352588,18:03:29.676,5.499916,0.000305,-0.107056,0.940613,7.755725,6.274809,1.175573
0.353382,18:03:29.677,5.499916,0.000305,-0.107056,0.940613,7.755725,6.274809,1.175573
0.354176,18:03:29.678,5.499916,0.000305,-0.107056,0.940613,7.755725,6.274809,1.175573
0.354971,18:03:29.679,5.499916,0.000305,-0.107056,0.940613,7.755725,6.274809,1.175573
0.355765,18:03:29.679,5.499916,0.000305,-0.107056,0.940613,7.755725,6.274809,1.175573
0.356559,18:03:29.680,5.499916,0.000305,-0.107056,0.940613,7.755725,6.274809,1.175573
0.357353,18:03:29.681,5.499916,0.000305,-0.107056,0.940613,7.755725,6.274809,1.175573
0.358147,18:03:29.682,5.499916,-0.003052,-0.110352,0.942322,6.030534,5.916030,1.786260
0.358941,18:03:29.682,5.499916,-0.003052,-0.110352,0.942322,6.030534,5.916030,1.786260
0.359735,18:03:29.683,5.499916,-0.003052,-0.110352,0.942322,6.030534,5.916030,1.786260
0.360529,18:03:29.684,5.499916,-0.003052,-0.110352,0.942322,6.030534,5.916030,1.786260
0.361324,18:03:29.685,5.499916,-0.003052,-0.110352,0.942322,6.030534,5.916030,1.786260
0.362118,18:03:29.686,-0.875669,-0.003052,-0.110352,0.942322,6.030534,5.916030,1.786260
0.362912,18:03:29.686,-0.642023,-0.003052,-0.110352,0.942322,6.030534,5.916030,1.786260
0.363706,18:03:29.687,-1.419501,-0.003052,-0.110352,0.942322,6.030534,5.916030,1.786260
0.364500,18:03:29.688,-1.746471,0.003113,-0.112061,0.940369,4.305344,6.206107,1.961832
0.365294,18:03:29.689,-1.746471,0.003113,-0.112061,0.940369,4.305344,6.206107,1.961832
0.366088,18:03:29.690,-2.287282,0.003113,-0.112061,0.940369,4.305344,6.206107,1.961832
0.366882,18:03:29.690,-2.618448,0.003113,-0.112061,0.940369,4.305344,6.206107,1.961832
0.367676,18:03:29.691,-3.337850,0.003113,-0.112061,0.940369,4.305344,6.206107,1.961832
0.368471,18:03:29.692,-3.769055,0.003113,-0.112061,0.940369,4.305344,6.206107,1.961832
0.369265,18:03:29.693,-4.196735,0.003113,-0.112061,0.940369,4.305344,6.206107,1.961832
0.370059,18:03:29.694,-4.660502,0.003113,-0.112061,0.940369,4.305344,6.206107,1.961832
0.370853,18:03:29.694,-5.265599,0.003113,-0.112061,0.940369,4.305344,6.206107,1.961832
0.371647,18:03:29.695,-5.493202,0.005981,-0.120544,0.943604,3.412214,6.534351,1.816794
0.372441,18:03:29.696,-5.494209,0.005981,-0.120544,0.943604,3.412214,6.534351,1.816794
0.373235,18:03:29.697,-5.494545,0.005981,-0.120544,0.943604,3.412214,6.534351,1.816794
0.374029,18:03:29.698,-5.494713,0.005981,-0.120544,0.943604,3.412214,6.534351,1.816794
0.374824,18:03:29.698,-5.494881,0.005981,-0.120544,0.943604,3.412214,6.534351,1.816794
0.375618,18:03:29.699,-5.494713,0.005981,-0.120544,0.943604,3.412214,6.534351,1.816794
0.376412,18:03:29.700,-5.494881,0.005981,-0.120544,0.943604,3.412214,6.534351,1.816794
0.377206,18:03:29.701,-5.494881,0.005981,-0.120544,0.943604,3.412214,6.534351,1.816794
0.378000,18:03:29.702,-5.494881,0.005981,-0.120544,0.943604,3.412214,6.534351,1.816794
0.378794,18:03:29.702,-5.495048,0.010803,-0.126343,0.942444,2.419847,7.519084,1.511450
0.379588,18:03:29.703,-5.495048,0.010803,-0.126343,0.942444,2.419847,7.519084,1.511450
0.380382,18:03:29.704,-5.495048,0.010803,-0.126343,0.942444,2.419847,7.519084,1.511450
0.381176,18:03:29.705,-5.495048,0.010803,-0.126343,0.942444,2.419847,7.519084,1.511450
0.381971,18:03:29.706,-5.495048,0.010803,-0.126343,0.942444,2.419847,7.519084,1.511450
0.382765,18:03:29.706,-5.494881,0.010803,-0.126343,0.942444,2.419847,7.519084,1.511450
0.383559,18:03:29.707,-5.494881,0.010803,-0.126343,0.942444,2.419847,7.519084,1.511450
0.384353,18:03:29.708,-5.495048,0.010803,-0.126343,0.942444,2.419847,7.519084,1.511450
0.385147,18:03:29.709,-5.494881,0.014709,-0.130127,0.943115,2.717557,8.564885,1.183206
0.385941,18:03:29.709,-5.494881,0.014709,-0.130127,0.943115,2.717557,8.564885,1.183206
0.386735,18:03:29.710,-5.495048,0.014709,-0.130127,0.943115,2.717557,8.564885,1.183206
0.387529,18:03:29.711,-5.495048,0.014709,-0.130127,0.943115,2.717557,8.564885,1.183206
0.388324,18:03:29.712,-5.494881,0.014709,-0.130127,0.943115,2.717557,8.564885,1.183206
0.389118,18:03:29.713,-5.494881,0.014709,-0.130127,0.943115,2.717557,8.564885,1.183206
0.389912,18:03:29.713,-5.494881,0.014709,-0.130127,0.943115,2.717557,8.564885,1.183206
0.390706,18:03:29.714,-5.494881,0.014709,-0.130127,0.943115,2.717557,8.564885,1.183206
0.391500,18:03:29.715,-5.495048,0.014709,-0.130127,0.943115,2.717557,8.564885,1.183206
0.392294,18:03:29.716,-5.495048,0.019897,-0.134644,0.948975,3.786260,9.908397,1.488550
0.393088,18:03:29.717,-5.495048,0.019897,-0.134644,0.948975,3.786260,9.908397,1.488550
0.393882,18:03:29.717,-5.495048,0.019897,-0.134644,0.948975,3.786260,9.908397,1.488550
0.394676,18:03:29.718,-5.495048,0.019897,-0.134644,0.948975,3.786260,9.908397,1.488550
0.395471,18:03:29.719,-5.495048,0.019897,-0.134644,0.948975,3.786260,9.908397,1.488550
0.396265,18:03:29.720,-5.495048,0.019897,-0.134644,0.948975,3.786260,9.908397,1.488550
0.397059,18:03:29.721,-5.495048,0.019897,-0.134644,0.948975,3.786260,9.908397,1.488550
0.397853,18:03:29.721,-5.495048,0.019897,-0.134644,0.948975,3.786260,9.908397,1.488550
0.398647,18:03:29.722,-5.495048,0.024963,-0.137939,0.950989,5.458015,11.396947,1.938931
0.399441,18:03:29.723,-5.494881,0.024963,-0.137939,0.950989,5.458015,11.396947,1.938931
0.400235,18:03:29.724,-5.495048,0.024963,-0.137939,0.950989,5.458015,11.396947,1.938931
0.401029,18:03:29.725,-5.495048,0.024963,-0.137939,0.950989,5.458015,11.396947,1.938931
0.401824,18:03:29.725,-5.495048,0.024963,-0.137939,0.950989,5.458015,11.396947,1.938931
0.402618,18:03:29.726,-5.495216,0.024963,-0.137939,0.950989,5.458015,11.396947,1.938931
0.403412,18:03:29.727,-4.980591,0.024963,-0.137939,0.950989,5.458015,11.396947,1.938931
0.404206,18:03:29.728,-3.750927,0.024963,-0.137939,0.950989,5.458015,11.396947,1.938931
0.405000,18:03:29.729,-2.611902,0.028931,-0.135498,0.950623,7.694656,12.816793,2.145038
0.405794,18:03:29.729,-1.536324,0.028931,-0.135498,0.950623,7.694656,12.816793,2.145038
0.406588,18:03:29.730,-0.716548,0.028931,-0.135498,0.950623,7.694656,12.816793,2.145038
0.407382,18:03:29.731,-0.196887,0.028931,-0.135498,0.950623,7.694656,12.816793,2.145038
0.408176,18:03:29.732,0.202594,0.028931,-0.135498,0.950623,7.694656,12.816793,2.145038
0.408971,18:03:29.733,0.345937,0.028931,-0.135498,0.950623,7.694656,12.816793,2.145038
0.409765,18:03:29.733,0.342916,0.028931,-0.135498,0.950623,7.694656,12.816793,2.145038
0.410559,18:03:29.734,0.262348,0.028931,-0.135498,0.950623,7.694656,12.816793,2.145038
0.411353,18:03:29.735,0.256306,0.028931,-0.135498,0.950623,7.694656,12.816793,2.145038
0.412147,18:03:29.736,0.384543,0.030518,-0.128418,0.949280,10.435115,13.580153,1.519084
0.412941,18:03:29.736,0.393271,0.030518,-0.128418,0.949280,10.435115,13.580153,1.519084
0.413735,18:03:29.737,0.164996,0.030518,-0.128418,0.949280,10.435115,13.580153,1.519084
0.414529,18:03:29.738,-0.273091,0.030518,-0.128418,0.949280,10.435115,13.580153,1.519084
0.415324,18:03:29.739,-1.208179,0.030518,-0.128418,0.949280,10.435115,13.580153,1.519084
0.416118,18:03:29.740,-1.746807,0.030518,-0.128418,0.949280,10.435115,13.580153,1.519084
0.416912,18:03:29.740,-1.817639,0.030518,-0.128418,0.949280,10.435115,13.580153,1.519084
0.417706,18:03:29.741,-1.575265,0.030518,-0.128418,0.949280,10.435115,13.580153,1.519084
0.418500,18:03:29.742,-1.162020,0.025818,-0.116028,0.945251,13.282443,14.061069,0.381679
0.419294,18:03:29.743,-0.797787,0.025818,-0.116028,0.945251,13.282443,14.061069,0.381679
0.420088,18:03:29.744,-0.559106,0.025818,-0.116028,0.945251,13.282443,14.061069,0.381679
0.420882,18:03:29.744,-0.260334,0.025818,-0.116028,0.945251,13.282443,14.061069,0.381679
0.421676,18:03:29.745,0.161639,0.025818,-0.116028,0.945251,13.282443,14.061069,0.381679
0.422471,18:03:29.746,0.739712,0.025818,-0.116028,0.945251,13.282443,14.061069,0.381679
0.423265,18:03:29.747,1.494697,0.025818,-0.116028,0.945251,13.282443,14.061069,0.381679
0.424059,18:03:29.748,2.344015,0.025818,-0.116028,0.945251,13.282443,14.061069,0.381679
0.424853,18:03:29.748,3.235966,0.025818,-0.116028,0.945251,13.282443,14.061069,0.381679
0.425647,18:03:29.749,4.021500,0.016296,-0.111450,0.943787,14.992367,13.809160,-0.633588
0.426441,18:03:29.750,4.672755,0.016296,-0.111450,0.943787,14.992367,13.809160,-0.633588
0.427235,18:03:29.751,5.060822,0.016296,-0.111450,0.943787,14.992367,13.809160,-0.633588
0.428029,18:03:29.752,5.292454,0.016296,-0.111450,0.943787,14.992367,13.809160,-0.633588
0.428824,18:03:29.752,5.499916,0.016296,-0.111450,0.943787,14.992367,13.809160,-0.633588
0.429618,18:03:29.753,5.499916,0.016296,-0.111450,0.943787,14.992367,13.809160,-0.633588
0.430412,18:03:29.754,5.499916,0.016296,-0.111450,0.943787,14.992367,13.809160,-0.633588
0.431206,18:03:29.755,5.499916,0.016296,-0.111450,0.943787,14.992367,13.809160,-0.633588
0.432000,18:03:29.756,5.499916,0.010376,-0.101685,0.939514,14.877863,12.854961,-0.969466
0.432794,18:03:29.756,5.450233,0.010376,-0.101685,0.939514,14.877863,12.854961,-0.969466
0.433588,18:03:29.757,5.058808,0.010376,-0.101685,0.939514,14.877863,12.854961,-0.969466
0.434382,18:03:29.758,4.597559,0.010376,-0.101685,0.939514,14.877863,12.854961,-0.969466
0.435176,18:03:29.759,4.167193,0.010376,-0.101685,0.939514,14.877863,12.854961,-0.969466
0.435971,18:03:29.760,3.810681,0.010376,-0.101685,0.939514,14.877863,12.854961,-0.969466
0.436765,18:03:29.760,3.590463,0.010376,-0.101685,0.939514,14.877863,12.854961,-0.969466
0.437559,18:03:29.761,3.448127,0.010376,-0.101685,0.939514,14.877863,12.854961,-0.969466
0.438353,18:03:29.762,3.224887,0.010376,-0.101685,0.939514,14.877863,12.854961,-0.969466
0.439147,18:03:29.763,2.893553,0.011780,-0.091431,0.932312,12.992367,11.961832,-0.541985
0.439941,18:03:29.763,2.470573,0.011780,-0.091431,0.932312,12.992367,11.961832,-0.541985
0.440735,18:03:29.764,2.103990,0.011780,-0.091431,0.932312,12.992367,11.961832,-0.541985
0.441529,18:03:29.765,1.995224,0.011780,-0.091431,0.932312,12.992367,11.961832,-0.541985
0.442324,18:03:29.766,2.157031,0.011780,-0.091431,0.932312,12.992367,11.961832,-0.541985
0.443118,18:03:29.767,2.530663,0.011780,-0.091431,0.932312,12.992367,11.961832,-0.541985
0.443912,18:03:29.767,3.044953,0.011780,-0.091431,0.932312,12.992367,11.961832,-0.541985
0.444706,18:03:29.768,3.531212,0.011780,-0.091431,0.932312,12.992367,11.961832,-0.541985
0.445500,18:03:29.769,3.912398,0.015747,-0.087891,0.936096,10.175572,12.381680,-0.030534
0.446294,18:03:29.770,4.068162,0.015747,-0.087891,0.936096,10.175572,12.381680,-0.030534
0.447088,18:03:29.771,3.873121,0.015747,-0.087891,0.936096,10.175572,12.381680,-0.030534
0.447882,18:03:29.771,3.523995,0.015747,-0.087891,0.936096,10.175572,12.381680,-0.030534
0.448676,18:03:29.772,3.115114,0.015747,-0.087891,0.936096,10.175572,12.381680,-0.030534
0.449471,18:03:29.773,2.604181,0.015747,-0.087891,0.936096,10.175572,12.381680,-0.030534
0.450265,18:03:29.774,1.971725,0.015747,-0.087891,0.936096,10.175572,12.381680,-0.030534
0.451059,18:03:29.775,1.209689,0.015747,-0.087891,0.936096,10.175572,12.381680,-0.030534
0.451853,18:03:29.775,0.431540,0.015747,-0.087891,0.936096,10.175572,12.381680,-0.030534
0.452647,18:03:29.776,-0.424659,0.016357,-0.089233,0.939697,6.427481,13.099236,0.419847
0.453441,18:03:29.777,-1.465492,0.016357,-0.089233,0.939697,6.427481,13.099236,0.419847
0.454235,18:03:29.778,-2.570947,0.016357,-0.089233,0.939697,6.427481,13.099236,0.419847
0.455029,18:03:29.779,-3.590463,0.016357,-0.089233,0.939697,6.427481,13.099236,0.419847
0.455824,18:03:29.779,-4.555764,0.016357,-0.089233,0.939697,6.427481,13.099236,0.419847
0.456618,18:03:29.780,-5.305715,0.016357,-0.089233,0.939697,6.427481,13.099236,0.419847
0.457412,18:03:29.781,-5.493202,0.016357,-0.089233,0.939697,6.427481,13.099236,0.419847
0.458206,18:03:29.782,-5.494041,0.016357,-0.089233,0.939697,6.427481,13.099236,0.419847
0.459000,18:03:29.783,-5.494545,0.020691,-0.090942,0.936462,2.389313,14.381680,0.877863
0.459794,18:03:29.783,-5.494545,0.020691,-0.090942,0.936462,2.389313,14.381680,0.877863
0.460588,18:03:29.784,-5.494713,0.020691,-0.090942,0.936462,2.389313,14.381680,0.877863
0.461382,18:03:29.785,-5.494713,0.020691,-0.090942,0.936462,2.389313,14.381680,0.877863
0.462176,18:03:29.786,-5.494713,0.020691,-0.090942,0.936462,2.389313,14.381680,0.877863
0.462971,18:03:29.787,-5.494881,0.020691,-0.090942,0.936462,2.389313,14.381680,0.877863
0.463765,18:03:29.787,-5.494881,0.020691,-0.090942,0.936462,2.389313,14.381680,0.877863
0.464559,18:03:29.788,-5.495048,0.020691,-0.090942,0.936462,2.389313,14.381680,0.877863
0.465353,18:03:29.789,-5.495048,0.020691,-0.090942,0.936462,2.389313,14.381680,0.877863
0.466147,18:03:29.790,-5.494881,0.017334,-0.100830,0.927612,-1.419847,15.809160,1.251908
0.466941,18:03:29.790,-5.495048,0.017334,-0.100830,0.927612,-1.419847,15.809160,1.251908
0.467735,18:03:29.791,-5.494881,0.017334,-0.100830,0.927612,-1.419847,15.809160,1.251908
0.468529,18:03:29.792,-5.495048,0.017334,-0.100830,0.927612,-1.419847,15.809160,1.251908
0.469324,18:03:29.793,-5.495048,0.017334,-0.100830,0.927612,-1.419847,15.809160,1.251908
0.470118,18:03:29.794,-5.495048,0.017334,-0.100830,0.927612,-1.419847,15.809160,1.251908
0.470912,18:03:29.794,-5.494881,0.017334,-0.100830,0.927612,-1.419847,15.809160,1.251908
0.471706,18:03:29.795,-5.495216,0.017334,-0.100830,0.927612,-1.419847,15.809160,1.251908
0.472500,18:03:29.796,-5.494881,0.015076,-0.108765,0.931152,-3.038168,16.305344,1.328244
0.473294,18:03:29.797,-5.495048,0.015076,-0.108765,0.931152,-3.038168,16.305344,1.328244
0.474088,18:03:29.798,-5.494881,0.015076,-0.108765,0.931152,-3.038168,16.305344,1.328244
0.474882,18:03:29.798,-5.395010,0.015076,-0.108765,0.931152,-3.038168,16.305344,1.328244
0.475676,18:03:29.799,-5.159854,0.015076,-0.108765,0.931152,-3.038168,16.305344,1.328244
0.476471,18:03:29.800,-4.795117,0.015076,-0.108765,0.931152,-3.038168,16.305344,1.328244
0.477265,18:03:29.801,-4.139162,0.015076,-0.108765,0.931152,-3.038168,16.305344,1.328244
0.478059,18:03:29.802,-3.312169,0.015076,-0.108765,0.931152,-3.038168,16.305344,1.328244
0.478853,18:03:29.802,-2.431128,0.015076,-0.108765,0.931152,-3.038168,16.305344,1.328244
0.479647,18:03:29.803,-1.587350,0.010315,-0.116699,0.944397,-4.824428,16.770992,1.236641
0.480441,18:03:29.804,-0.753140,0.010315,-0.116699,0.944397,-4.824428,16.770992,1.236641
0.481235,18:03:29.805,0.229282,0.010315,-0.116699,0.944397,-4.824428,16.770992,1.236641
0.482029,18:03:29.806,1.406409,0.010315,-0.116699,0.944397,-4.824428,16.770992,1.236641
0.482824,18:03:29.806,2.749203,0.010315,-0.116699,0.944397,-4.824428,16.770992,1.236641
0.483618,18:03:29.807,4.218891,0.010315,-0.116699,0.944397,-4.824428,16.770992,1.236641
0.484412,18:03:29.808,5.495216,0.010315,-0.116699,0.944397,-4.824428,16.770992,1.236641
0.485206,18:03:29.809,5.499916,0.010315,-0.116699,0.944397,-4.824428,16.770992,1.236641
0.486000,18:03:29.810,5.499916,0.005859,-0.123352,0.947754,-4.167939,16.557251,1.343511
0.486794,18:03:29.810,5.499916,0.005859,-0.123352,0.947754,-4.167939,16.557251,1.343511
0.487588,18:03:29.811,5.499916,0.005859,-0.123352,0.947754,-4.167939,16.557251,1.343511
0.488382,18:03:29.812,5.499916,0.005859,-0.123352,0.947754,-4.167939,16.557251,1.343511
0.489176,18:03:29.813,5.499916,0.005859,-0.123352,0.947754,-4.167939,16.557251,1.343511
0.489971,18:03:29.814,5.499916,0.005859,-0.123352,0.947754,-4.167939,16.557251,1.343511
0.490765,18:03:29.814,5.499916,0.005859,-0.123352,0.947754,-4.167939,16.557251,1.343511
0.491559,18:03:29.815,5.499916,0.005859,-0.123352,0.947754,-4.167939,16.557251,1.343511
0.492353,18:03:29.816,5.499916,0.005859,-0.123352,0.947754,-4.167939,16.557251,1.343511
0.493147,18:03:29.817,5.499916,0.010498,-0.131653,0.948914,-1.870229,16.282442,1.450382
0.493941,18:03:29.817,5.499916,0.010498,-0.131653,0.948914,-1.870229,16.282442,1.450382
0.494735,18:03:29.818,5.499916,0.010498,-0.131653,0.948914,-1.870229,16.282442,1.450382
0.495529,18:03:29.819,5.499916,0.010498,-0.131653,0.948914,-1.870229,16.282442,1.450382
0.496324,18:03:29.820,5.499916,0.010498,-0.131653,0.948914,-1.870229,16.282442,1.450382
0.497118,18:03:29.821,5.499916,0.010498,-0.131653,0.948914,-1.870229,16.282442,1.450382
0.497912,18:03:29.821,5.499916,0.010498,-0.131653,0.948914,-1.870229,16.282442,1.450382
0.498706,18:03:29.822,5.499916,0.010498,-0.131653,0.948914,-1.870229,16.282442,1.450382
0.499500,18:03:29.823,5.499916,0.011353,-0.138123,0.944702,0.427481,15.709924,1.564885
0.500294,18:03:29.824,5.499916,0.011353,-0.138123,0.944702,0.427481,15.709924,1.564885
0.501088,18:03:29.825,5.499916,0.011353,-0.138123,0.944702,0.427481,15.709924,1.564885
0.501882,18:03:29.825,5.499916,0.011353,-0.138123,0.944702,0.427481,15.709924,1.564885
0.502676,18:03:29.826,5.499916,0.011353,-0.138123,0.944702,0.427481,15.709924,1.564885
0.503471,18:03:29.827,5.499916,0.011353,-0.138123,0.944702,0.427481,15.709924,1.564885
0.504265,18:03:29.828,5.499916,0.011353,-0.138123,0.944702,0.427481,15.709924,1.564885
0.505059,18:03:29.829,5.499916,0.011353,-0.138123,0.944702,0.427481,15.709924,1.564885
0.505853,18:03:29.829,5.499916,0.011353,-0.138123,0.944702,0.427481,15.709924,1.564885
0.506647,18:03:29.830,5.499916,0.012329,-0.145020,0.949341,2.221374,15.572519,1.374046
0.507441,18:03:29.831,5.499916,0.012329,-0.145020,0.949341,2.221374,15.572519,1.374046
0.508235,18:03:29.832,5.499916,0.012329,-0.145020,0.949341,2.221374,15.572519,1.374046
0.509029,18:03:29.833,5.499916,0.012329,-0.145020,0.949341,2.221374,15.572519,1.374046
0.509824,18:03:29.833,5.499916,0.012329,-0.145020,0.949341,2.221374,15.572519,1.374046
0.510618,18:03:29.834,5.499916,0.012329,-0.145020,0.949341,2.221374,15.572519,1.374046
0.511412,18:03:29.835,5.499916,0.012329,-0.145020,0.949341,2.221374,15.572519,1.374046
0.512206,18:03:29.836,5.499916,0.012329,-0.145020,0.949341,2.221374,15.572519,1.374046
0.513000,18:03:29.837,5.499916,0.012817,-0.150513,0.953430,3.664122,14.641221,1.625954
0.513794,18:03:29.837,5.499916,0.012817,-0.150513,0.953430,3.664122,14.641221,1.625954
0.514588,18:03:29.838,5.499916,0.012817,-0.150513,0.953430,3.664122,14.641221,1.625954
0.515382,18:03:29.839,5.499916,0.012817,-0.150513,0.953430,3.664122,14.641221,1.625954
0.516176,18:03:29.840,5.499916,0.012817,-0.150513,0.953430,3.664122,14.641221,1.625954
0.516971,18:03:29.841,5.499916,0.012817,-0.150513,0.953430,3.664122,14.641221,1.625954
0.517765,18:03:29.841,5.499916,0.012817,-0.150513,0.953430,3.664122,14.641221,1.625954
0.518559,18:03:29.842,5.499916,0.012817,-0.150513,0.953430,3.664122,14.641221,1.625954
0.519353,18:03:29.843,5.499916,0.012817,-0.150513,0.953430,3.664122,14.641221,1.625954
0.520147,18:03:29.844,5.499916,0.014648,-0.148560,0.950989,6.053435,13.251908,1.847328
0.520941,18:03:29.844,5.499916,0.014648,-0.148560,0.950989,6.053435,13.251908,1.847328
0.521735,18:03:29.845,5.499916,0.014648,-0.148560,0.950989,6.053435,13.251908,1.847328
0.522529,18:03:29.846,5.499916,0.014648,-0.148560,0.950989,6.053435,13.251908,1.847328
0.523324,18:03:29.847,5.499916,0.014648,-0.148560,0.950989,6.053435,13.251908,1.847328
0.524118,18:03:29.848,5.499916,0.014648,-0.148560,0.950989,6.053435,13.251908,1.847328
0.524912,18:03:29.848,-0.544671,0.014648,-0.148560,0.950989,6.053435,13.251908,1.847328
0.525706,18:03:29.849,0.667872,0.014648,-0.148560,0.950989,6.053435,13.251908,1.847328
0.526500,18:03:29.850,0.339223,0.015869,-0.151733,0.950134,8.809160,11.709924,1.572519
0.527294,18:03:29.851,-0.529564,0.015869,-0.151733,0.950134,8.809160,11.709924,1.572519
0.528088,18:03:29.852,-1.256352,0.015869,-0.151733,0.950134,8.809160,11.709924,1.572519
0.528882,18:03:29.852,-2.188922,0.015869,-0.151733,0.950134,8.809160,11.709924,1.572519
0.529676,18:03:29.853,-3.149187,0.015869,-0.151733,0.950134,8.809160,11.709924,1.572519
0.530471,18:03:29.854,-3.149187,0.015869,-0.151733,0.950134,8.809160,11.709924,1.572519
0.531265,18:03:29.855,-5.166232,0.015869,-0.151733,0.950134,8.809160,11.709924,1.572519
0.532059,18:03:29.856,-5.493034,0.015869,-0.151733,0.950134,8.809160,11.709924,1.572519
0.532853,18:03:29.856,-5.494041,0.015869,-0.151733,0.950134,8.809160,11.709924,1.572519
0.533647,18:03:29.857,-5.494377,0.018066,-0.142090,0.955017,12.267176,10.618320,1.091603
0.534441,18:03:29.858,-5.494713,0.018066,-0.142090,0.955017,12.267176,10.618320,1.091603
0.535235,18:03:29.859,-5.494545,0.018066,-0.142090,0.955017,12.267176,10.618320,1.091603
0.536029,18:03:29.860,-5.494545,0.018066,-0.142090,0.955017,12.267176,10.618320,1.091603
0.536824,18:03:29.860,-5.494713,0.018066,-0.142090,0.955017,12.267176,10.618320,1.091603
0.537618,18:03:29.861,-5.494881,0.018066,-0.142090,0.955017,12.267176,10.618320,1.091603
0.538412,18:03:29.862,-5.495048,0.018066,-0.142090,0.955017,12.267176,10.618320,1.091603
0.539206,18:03:29.863,-5.495048,0.018066,-0.142090,0.955017,12.267176,10.618320,1.091603
0.540000,18:03:29.864,-5.495048,0.018066,-0.142090,0.955017,12.267176,10.618320,1.091603
0.540794,18:03:29.864,-5.495216,0.019897,-0.132996,0.958191,16.083969,9.343512,0.519084
0.541588,18:03:29.865,-5.495048,0.019897,-0.132996,0.958191,16.083969,9.343512,0.519084
0.542382,18:03:29.866,-5.495048,0.019897,-0.132996,0.958191,16.083969,9.343512,0.519084
0.543176,18:03:29.867,-5.495216,0.019897,-0.132996,0.958191,16.083969,9.343512,0.519084
0.543971,18:03:29.868,-5.495216,0.019897,-0.132996,0.958191,16.083969,9.343512,0.519084
0.544765,18:03:29.868,-5.495048,0.019897,-0.132996,0.958191,16.083969,9.343512,0.519084
0.545559,18:03:29.869,-5.495048,0.019897,-0.132996,0.958191,16.083969,9.343512,0.519084
0.546353,18:03:29.870,-5.495048,0.019897,-0.132996,0.958191,16.083969,9.343512,0.519084
0.547147,18:03:29.871,-5.495048,0.020569,-0.120789,0.950867,19.526718,8.106871,0.251908
0.547941,18:03:29.871,-5.495216,0.020569,-0.120789,0.950867,19.526718,8.106871,0.251908
0.548735,18:03:29.872,-5.495216,0.020569,-0.120789,0.950867,19.526718,8.106871,0.251908
0.549529,18:03:29.873,-5.495048,0.020569,-0.120789,0.950867,19.526718,8.106871,0.251908
0.550324,18:03:29.874,-5.495048,0.020569,-0.120789,0.950867,19.526718,8.106871,0.251908
0.551118,18:03:29.875,-5.494881,0.020569,-0.120789,0.950867,19.526718,8.106871,0.251908
0.551912,18:03:29.875,-5.494713,0.020569,-0.120789,0.950867,19.526718,8.106871,0.251908
0.552706,18:03:29.876,-5.495048,0.020569,-0.120789,0.950867,19.526718,8.106871,0.251908
0.553500,18:03:29.877,-5.495048,0.020630,-0.117188,0.946655,21.709923,7.427481,-0.076336
0.554294,18:03:29.878,-5.495048,0.020630,-0.117188,0.946655,21.709923,7.427481,-0.076336
0.555088,18:03:29.879,-5.495216,0.020630,-0.117188,0.946655,21.709923,7.427481,-0.076336
0.555882,18:03:29.879,-5.495216,0.020630,-0.117188,0.946655,21.709923,7.427481,-0.076336
0.556676,18:03:29.880,-5.495048,0.020630,-0.117188,0.946655,21.709923,7.427481,-0.076336
0.557471,18:03:29.881,-5.495048,0.020630,-0.117188,0.946655,21.709923,7.427481,-0.076336
0.558265,18:03:29.882,-5.495048,0.020630,-0.117188,0.946655,21.709923,7.427481,-0.076336
0.559059,18:03:29.883,-5.494881,0.020630,-0.117188,0.946655,21.709923,7.427481,-0.076336
0.559853,18:03:29.883,-5.235721,0.020630,-0.117188,0.946655,21.709923,7.427481,-0.076336
0.560647,18:03:29.884,-4.859739,0.021729,-0.104919,0.944153,22.351145,7.305344,-0.435115
0.561441,18:03:29.885,-4.320439,0.021729,-0.104919,0.944153,22.351145,7.305344,-0.435115
0.562235,18:03:29.886,-3.608927,0.021729,-0.104919,0.944153,22.351145,7.305344,-0.435115
0.563029,18:03:29.887,-2.681727,0.021729,-0.104919,0.944153,22.351145,7.305344,-0.435115
0.563824,18:03:29.887,-2.681727,0.021729,-0.104919,0.944153,22.351145,7.305344,-0.435115
0.564618,18:03:29.888,-0.566827,0.021729,-0.104919,0.944153,22.351145,7.305344,-0.435115
0.565412,18:03:29.889,0.327474,0.021729,-0.104919,0.944153,22.351145,7.305344,-0.435115
0.566206,18:03:29.890,1.104784,0.021729,-0.104919,0.944153,22.351145,7.305344,-0.435115
0.567000,18:03:29.891,1.602792,0.024231,-0.085754,0.939148,22.030535,7.259542,-0.641221
0.567794,18:03:29.891,1.928420,0.024231,-0.085754,0.939148,22.030535,7.259542,-0.641221
0.568588,18:03:29.892,2.193957,0.024231,-0.085754,0.939148,22.030535,7.259542,-0.641221
0.569382,18:03:29.893,2.367849,0.024231,-0.085754,0.939148,22.030535,7.259542,-0.641221
0.570176,18:03:29.894,2.482322,0.024231,-0.085754,0.939148,22.030535,7.259542,-0.641221
0.570971,18:03:29.895,2.529656,0.024231,-0.085754,0.939148,22.030535,7.259542,-0.641221
0.571765,18:03:29.895,2.505486,0.024231,-0.085754,0.939148,22.030535,7.259542,-0.641221
0.572559,18:03:29.896,2.505486,0.024231,-0.085754,0.939148,22.030535,7.259542,-0.641221
0.573353,18:03:29.897,2.039536,0.024231,-0.085754,0.939148,22.030535,7.259542,-0.641221
0.574147,18:03:29.898,1.613199,0.027222,-0.076416,0.934326,20.145039,7.389313,-1.099237
0.574941,18:03:29.898,1.227146,0.027222,-0.076416,0.934326,20.145039,7.389313,-1.099237
0.575735,18:03:29.899,0.885405,0.027222,-0.076416,0.934326,20.145039,7.389313,-1.099237
0.576529,18:03:29.900,0.658305,0.027222,-0.076416,0.934326,20.145039,7.389313,-1.099237
0.577324,18:03:29.901,0.561624,0.027222,-0.076416,0.934326,20.145039,7.389313,-1.099237
0.578118,18:03:29.902,0.506065,0.027222,-0.076416,0.934326,20.145039,7.389313,-1.099237
0.578912,18:03:29.902,0.443961,0.027222,-0.076416,0.934326,20.145039,7.389313,-1.099237
0.579706,18:03:29.903,0.244221,0.027222,-0.076416,0.934326,20.145039,7.389313,-1.099237
0.580500,18:03:29.904,0.244221,0.027222,-0.076416,0.934326,20.145039,7.389313,-1.099237
0.581294,18:03:29.905,0.066972,0.031128,-0.070007,0.933777,17.129770,8.267176,-1.114504
0.582088,18:03:29.906,0.311696,0.031128,-0.070007,0.933777,17.129770,8.267176,-1.114504
0.582882,18:03:29.906,0.798123,0.031128,-0.070007,0.933777,17.129770,8.267176,-1.114504
0.583676,18:03:29.907,1.493690,0.031128,-0.070007,0.933777,17.129770,8.267176,-1.114504
0.584471,18:03:29.908,2.206882,0.031128,-0.070007,0.933777,17.129770,8.267176,-1.114504
0.585265,18:03:29.909,2.847730,0.031128,-0.070007,0.933777,17.129770,8.267176,-1.114504
0.586059,18:03:29.910,3.447456,0.031128,-0.070007,0.933777,17.129770,8.267176,-1.114504
0.586853,18:03:29.910,3.893935,0.031128,-0.070007,0.933777,17.129770,8.267176,-1.114504
0.587647,18:03:29.911,4.244404,0.029236,-0.065063,0.930969,12.954199,9.717557,-0.580153
0.588441,18:03:29.912,4.556939,0.029236,-0.065063,0.930969,12.954199,9.717557,-0.580153
0.589235,18:03:29.913,4.556939,0.029236,-0.065063,0.930969,12.954199,9.717557,-0.580153
0.590029,18:03:29.914,4.905058,0.029236,-0.065063,0.930969,12.954199,9.717557,-0.580153
0.590824,18:03:29.914,5.019532,0.029236,-0.065063,0.930969,12.954199,9.717557,-0.580153
0.591618,18:03:29.915,5.087343,0.029236,-0.065063,0.930969,12.954199,9.717557,-0.580153
0.592412,18:03:29.916,5.074922,0.029236,-0.065063,0.930969,12.954199,9.717557,-0.580153
0.593206,18:03:29.917,4.888273,0.029236,-0.065063,0.930969,12.954199,9.717557,-0.580153
0.594000,18:03:29.918,4.547204,0.025574,-0.065796,0.927246,7.946565,11.160305,0.198473
0.594794,18:03:29.918,4.216876,0.025574,-0.065796,0.927246,7.946565,11.160305,0.198473
0.595588,18:03:29.919,3.915419,0.025574,-0.065796,0.927246,7.946565,11.160305,0.198473
0.596382,18:03:29.920,3.650889,0.025574,-0.065796,0.927246,7.946565,11.160305,0.198473
0.597176,18:03:29.921,3.650889,0.025574,-0.065796,0.927246,7.946565,11.160305,0.198473
0.597971,18:03:29.922,3.395758,0.025574,-0.065796,0.927246,7.946565,11.160305,0.198473
0.598765,18:03:29.922,3.169162,0.025574,-0.065796,0.927246,7.946565,11.160305,0.198473
0.599559,18:03:29.923,2.403433,0.025574,-0.065796,0.927246,7.946565,11.160305,0.198473
0.600353,18:03:29.924,1.138521,0.025574,-0.065796,0.927246,7.946565,11.160305,0.198473
0.601147,18:03:29.925,-0.388907,0.026123,-0.076233,0.927368,2.152672,13.244275,1.351145
0.601941,18:03:29.925,-1.211536,0.026123,-0.076233,0.927368,2.152672,13.244275,1.351145
0.602735,18:03:29.926,-1.231510,0.026123,-0.076233,0.927368,2.152672,13.244275,1.351145
0.603529,18:03:29.927,-0.763210,0.026123,-0.076233,0.927368,2.152672,13.244275,1.351145
0.604324,18:03:29.928,0.074357,0.026123,-0.076233,0.927368,2.152672,13.244275,1.351145
0.605118,18:03:29.929,1.011460,0.026123,-0.076233,0.927368,2.152672,13.244275,1.351145
0.605912,18:03:29.929,1.011460,0.026123,-0.076233,0.927368,2.152672,13.244275,1.351145
0.606706,18:03:29.930,2.898924,0.026123,-0.076233,0.927368,2.152672,13.244275,1.351145
0.607500,18:03:29.931,3.466590,0.026123,-0.076233,0.927368,2.152672,13.244275,1.351145
0.608294,18:03:29.932,3.865736,0.029175,-0.088806,0.932007,-3.145038,14.923664,2.526718
0.609088,18:03:29.933,4.125902,0.029175,-0.088806,0.932007,-3.145038,14.923664,2.526718
0.609882,18:03:29.933,4.237018,0.029175,-0.088806,0.932007,-3.145038,14.923664,2.526718
0.610676,18:03:29.934,4.184649,0.029175,-0.088806,0.932007,-3.145038,14.923664,2.526718
0.611471,18:03:29.935,4.233661,0.029175,-0.088806,0.932007,-3.145038,14.923664,2.526718
0.612265,18:03:29.936,4.512963,0.029175,-0.088806,0.932007,-3.145038,14.923664,2.526718
0.613059,18:03:29.937,4.524712,0.029175,-0.088806,0.932007,-3.145038,14.923664,2.526718
0.613853,18:03:29.937,4.524712,0.029175,-0.088806,0.932007,-3.145038,14.923664,2.526718
0.614647,18:03:29.938,3.693523,0.032104,-0.102356,0.933533,-6.259542,15.938931,3.183206
0.615441,18:03:29.939,3.086580,0.032104,-0.102356,0.933533,-6.259542,15.938931,3.183206
0.616235,18:03:29.940,2.549798,0.032104,-0.102356,0.933533,-6.259542,15.938931,3.183206
0.617029,18:03:29.941,2.097276,0.032104,-0.102356,0.933533,-6.259542,15.938931,3.183206
0.617824,18:03:29.941,1.644755,0.032104,-0.102356,0.933533,-6.259542,15.938931,3.183206
0.618618,18:03:29.942,1.239231,0.032104,-0.102356,0.933533,-6.259542,15.938931,3.183206
0.619412,18:03:29.943,0.826322,0.032104,-0.102356,0.933533,-6.259542,15.938931,3.183206
0.620206,18:03:29.944,0.295079,0.032104,-0.102356,0.933533,-6.259542,15.938931,3.183206
0.621000,18:03:29.945,-0.305989,0.036255,-0.118835,0.936768,-7.709924,15.633588,3.564885
0.621794,18:03:29.945,-0.782513,0.036255,-0.118835,0.936768,-7.709924,15.633588,3.564885
0.622588,18:03:29.946,-0.782513,0.036255,-0.118835,0.936768,-7.709924,15.633588,3.564885
0.623382,18:03:29.947,-1.220432,0.036255,-0.118835,0.936768,-7.709924,15.633588,3.564885
0.624176,18:03:29.948,-1.120226,0.036255,-0.118835,0.936768,-7.709924,15.633588,3.564885
0.624971,18:03:29.949,-0.977218,0.036255,-0.118835,0.936768,-7.709924,15.633588,3.564885
0.625765,18:03:29.949,-0.860899,0.036255,-0.118835,0.936768,-7.709924,15.633588,3.564885
0.626559,18:03:29.950,-0.791073,0.036255,-0.118835,0.936768,-7.709924,15.633588,3.564885
0.627353,18:03:29.951,-0.856199,0.036255,-0.118835,0.936768,-7.709924,15.633588,3.564885
0.628147,18:03:29.952,-0.989471,0.040161,-0.134644,0.951843,-6.969466,14.282443,3.732824
0.628941,18:03:29.952,-1.163195,0.040161,-0.134644,0.951843,-6.969466,14.282443,3.732824
0.629735,18:03:29.953,-1.388617,0.040161,-0.134644,0.951843,-6.969466,14.282443,3.732824
0.630529,18:03:29.954,-1.388617,0.040161,-0.134644,0.951843,-6.969466,14.282443,3.732824
0.631324,18:03:29.955,-1.862119,0.040161,-0.134644,0.951843,-6.969466,14.282443,3.732824
0.632118,18:03:29.956,-2.114733,0.040161,-0.134644,0.951843,-6.969466,14.282443,3.732824
0.632912,18:03:29.956,-2.456474,0.040161,-0.134644,0.951843,-6.969466,14.282443,3.732824
0.633706,18:03:29.957,-2.884154,0.040161,-0.134644,0.951843,-6.969466,14.282443,3.732824
0.634500,18:03:29.958,-3.332647,0.043396,-0.148315,0.962036,-3.740458,13.229008,3.145038
0.635294,18:03:29.959,-3.733135,0.043396,-0.148315,0.962036,-3.740458,13.229008,3.145038
0.636088,18:03:29.960,-4.079240,0.043396,-0.148315,0.962036,-3.740458,13.229008,3.145038
0.636882,18:03:29.960,-4.313558,0.043396,-0.148315,0.962036,-3.740458,13.229008,3.145038
0.637676,18:03:29.961,-4.444816,0.043396,-0.148315,0.962036,-3.740458,13.229008,3.145038
0.638471,18:03:29.962,-4.512123,0.043396,-0.148315,0.962036,-3.740458,13.229008,3.145038
0.639265,18:03:29.963,-4.512123,0.043396,-0.148315,0.962036,-3.740458,13.229008,3.145038
0.640059,18:03:29.964,-4.737209,0.043396,-0.148315,0.962036,-3.740458,13.229008,3.145038
0.640853,18:03:29.964,-4.837583,0.043396,-0.148315,0.962036,-3.740458,13.229008,3.145038
0.641647,18:03:29.965,-4.777157,0.047119,-0.153381,0.968262,2.000000,11.923664,2.038168
0.642441,18:03:29.966,-4.546365,0.047119,-0.153381,0.968262,2.000000,11.923664,2.038168
0.643235,18:03:29.967,-4.116167,0.047119,-0.153381,0.968262,2.000000,11.923664,2.038168
0.644029,18:03:29.968,-3.531716,0.047119,-0.153381,0.968262,2.000000,11.923664,2.038168
0.644824,18:03:29.968,-2.957168,0.047119,-0.153381,0.968262,2.000000,11.923664,2.038168
0.645618,18:03:29.969,-2.424918,0.047119,-0.153381,0.968262,2.000000,11.923664,2.038168
0.646412,18:03:29.970,-1.952590,0.047119,-0.153381,0.968262,2.000000,11.923664,2.038168
0.647206,18:03:29.971,-1.952590,0.047119,-0.153381,0.968262,2.000000,11.923664,2.038168
0.648000,18:03:29.972,-1.302007,0.047119,-0.153381,0.968262,2.000000,11.923664,2.038168
0.648794,18:03:29.972,-1.034455,0.046204,-0.149841,0.966919,8.389313,10.465649,1.045802
0.649588,18:03:29.973,-0.817929,0.046204,-0.149841,0.966919,8.389313,10.465649,1.045802
0.650382,18:03:29.974,-0.653605,0.046204,-0.149841,0.966919,8.389313,10.465649,1.045802
0.651176,18:03:29.975,-0.528557,0.046204,-0.149841,0.966919,8.389313,10.465649,1.045802
0.651971,18:03:29.976,-0.423484,0.046204,-0.149841,0.966919,8.389313,10.465649,1.045802
0.652765,18:03:29.976,-0.401663,0.046204,-0.149841,0.966919,8.389313,10.465649,1.045802
0.653559,18:03:29.977,-0.490623,0.046204,-0.149841,0.966919,8.389313,10.465649,1.045802
0.654353,18:03:29.978,-0.624567,0.046204,-0.149841,0.966919,8.389313,10.465649,1.045802
0.655147,18:03:29.979,-0.736355,0.043396,-0.149597,0.964417,14.824428,9.664123,0.984733
0.655941,18:03:29.979,-0.736355,0.043396,-0.149597,0.964417,14.824428,9.664123,0.984733
0.656735,18:03:29.980,-0.853513,0.043396,-0.149597,0.964417,14.824428,9.664123,0.984733
0.657529,18:03:29.981,-0.779324,0.043396,-0.149597,0.964417,14.824428,9.664123,0.984733
0.658324,18:03:29.982,-0.684657,0.043396,-0.149597,0.964417,14.824428,9.664123,0.984733
0.659118,18:03:29.983,-0.596368,0.043396,-0.149597,0.964417,14.824428,9.664123,0.984733
0.659912,18:03:29.983,-0.617182,0.043396,-0.149597,0.964417,14.824428,9.664123,0.984733
0.660706,18:03:29.984,-0.675593,0.043396,-0.149597,0.964417,14.824428,9.664123,0.984733
0.661500,18:03:29.985,-0.633631,0.037109,-0.141968,0.960022,19.458015,9.114504,0.931298
0.662294,18:03:29.986,-0.450340,0.037109,-0.141968,0.960022,19.458015,9.114504,0.931298
0.663088,18:03:29.987,-0.100206,0.037109,-0.141968,0.960022,19.458015,9.114504,0.931298
0.663882,18:03:29.987,-0.100206,0.037109,-0.141968,0.960022,19.458015,9.114504,0.931298
0.664676,18:03:29.988,0.964294,0.037109,-0.141968,0.960022,19.458015,9.114504,0.931298
0.665471,18:03:29.989,1.407752,0.037109,-0.141968,0.960022,19.458015,9.114504,0.931298
0.666265,18:03:29.990,1.818479,0.037109,-0.141968,0.960022,19.458015,9.114504,0.931298
0.667059,18:03:29.991,2.170794,0.037109,-0.141968,0.960022,19.458015,9.114504,0.931298
0.667853,18:03:29.991,2.520256,0.037109,-0.141968,0.960022,19.458015,9.114504,0.931298
0.668647,18:03:29.992,2.867369,0.033936,-0.129028,0.952637,21.152672,9.022901,1.106870
0.669441,18:03:29.993,3.128542,0.033936,-0.129028,0.952637,21.152672,9.022901,1.106870
0.670235,18:03:29.994,3.372091,0.033936,-0.129028,0.952637,21.152672,9.022901,1.106870
0.671029,18:03:29.995,3.630747,0.033936,-0.129028,0.952637,21.152672,9.022901,1.106870
0.671824,18:03:29.995,3.891752,0.033936,-0.129028,0.952637,21.152672,9.022901,1.106870
0.672618,18:03:29.996,3.891752,0.033936,-0.129028,0.952637,21.152672,9.022901,1.106870
0.673412,18:03:29.997,4.182635,0.033936,-0.129028,0.952637,21.152672,9.022901,1.106870
0.674206,18:03:29.998,4.139666,0.033936,-0.129028,0.952637,21.152672,9.022901,1.106870
0.675000,18:03:29.999,4.054398,0.033142,-0.109070,0.947021,23.786259,8.351145,0.755725
0.675794,18:03:29.999,3.971817,0.033142,-0.109070,0.947021,23.786259,8.351145,0.755725
0.676588,18:03:30.000,3.910048,0.033142,-0.109070,0.947021,23.786259,8.351145,0.755725
0.677382,18:03:30.001,3.912062,0.033142,-0.109070,0.947021,23.786259,8.351145,0.755725
0.678176,18:03:30.002,3.926162,0.033142,-0.109070,0.947021,23.786259,8.351145,0.755725
0.678971,18:03:30.003,3.964767,0.033142,-0.109070,0.947021,23.786259,8.351145,0.755725
0.679765,18:03:30.003,3.918776,0.033142,-0.109070,0.947021,23.786259,8.351145,0.755725
0.680559,18:03:30.004,3.918776,0.033142,-0.109070,0.947021,23.786259,8.351145,0.755725
0.681353,18:03:30.005,3.604898,0.033142,-0.109070,0.947021,23.786259,8.351145,0.755725
0.682147,18:03:30.006,3.548165,0.028931,-0.090820,0.942871,25.419847,7.900764,0.022901
0.682941,18:03:30.006,3.607248,0.028931,-0.090820,0.942871,25.419847,7.900764,0.022901
0.683735,18:03:30.007,3.799268,0.028931,-0.090820,0.942871,25.419847,7.900764,0.022901
0.684529,18:03:30.008,4.053727,0.028931,-0.090820,0.942871,25.419847,7.900764,0.022901
0.685324,18:03:30.009,4.247761,0.028931,-0.090820,0.942871,25.419847,7.900764,0.022901
0.686118,18:03:30.010,4.394797,0.028931,-0.090820,0.942871,25.419847,7.900764,0.022901
0.686912,18:03:30.010,4.400839,0.028931,-0.090820,0.942871,25.419847,7.900764,0.022901
0.687706,18:03:30.011,4.271595,0.028931,-0.090820,0.942871,25.419847,7.900764,0.022901
0.688500,18:03:30.012,4.118181,0.025696,-0.077087,0.934875,25.167938,7.671756,-0.648855
0.689294,18:03:30.013,4.118181,0.025696,-0.077087,0.934875,25.167938,7.671756,-0.648855
0.690088,18:03:30.014,3.680430,0.025696,-0.077087,0.934875,25.167938,7.671756,-0.648855
0.690882,18:03:30.014,3.417243,0.025696,-0.077087,0.934875,25.167938,7.671756,-0.648855
0.691676,18:03:30.015,3.165133,0.025696,-0.077087,0.934875,25.167938,7.671756,-0.648855
0.692471,18:03:30.016,2.892210,0.025696,-0.077087,0.934875,25.167938,7.671756,-0.648855
0.693265,18:03:30.017,2.514549,0.025696,-0.077087,0.934875,25.167938,7.671756,-0.648855
0.694059,18:03:30.018,2.012680,0.025696,-0.077087,0.934875,25.167938,7.671756,-0.648855
0.694853,18:03:30.018,1.493019,0.025696,-0.077087,0.934875,25.167938,7.671756,-0.648855
0.695647,18:03:30.019,1.015656,0.024780,-0.070251,0.926636,22.122137,7.122138,-0.931298
0.696441,18:03:30.020,0.584619,0.024780,-0.070251,0.926636,22.122137,7.122138,-0.931298
0.697235,18:03:30.021,0.584619,0.024780,-0.070251,0.926636,22.122137,7.122138,-0.931298
0.698029,18:03:30.022,0.000504,0.024780,-0.070251,0.926636,22.122137,7.122138,-0.931298
0.698824,18:03:30.022,-0.199741,0.024780,-0.070251,0.926636,22.122137,7.122138,-0.931298
0.699618,18:03:30.023,-0.445304,0.024780,-0.070251,0.926636,22.122137,7.122138,-0.931298
0.700412,18:03:30.024,-0.760357,0.024780,-0.070251,0.926636,22.122137,7.122138,-0.931298
0.701206,18:03:30.025,-0.978729,0.024780,-0.070251,0.926636,22.122137,7.122138,-0.931298
0.702000,18:03:30.026,-1.044862,0.033569,-0.063171,0.928772,17.374046,7.251908,-0.664122
0.702794,18:03:30.026,-0.917296,0.033569,-0.063171,0.928772,17.374046,7.251908,-0.664122
0.703588,18:03:30.027,-0.605936,0.033569,-0.063171,0.928772,17.374046,7.251908,-0.664122
0.704382,18:03:30.028,-0.215015,0.033569,-0.063171,0.928772,17.374046,7.251908,-0.664122
0.705176,18:03:30.029,0.123705,0.033569,-0.063171,0.928772,17.374046,7.251908,-0.664122
0.705971,18:03:30.030,0.123705,0.033569,-0.063171,0.928772,17.374046,7.251908,-0.664122
0.706765,18:03:30.030,0.608118,0.033569,-0.063171,0.928772,17.374046,7.251908,-0.664122
0.707559,18:03:30.031,0.646723,0.033569,-0.063171,0.928772,17.374046,7.251908,-0.664122
0.708353,18:03:30.032,0.659648,0.033569,-0.063171,0.928772,17.374046,7.251908,-0.664122
0.709147,18:03:30.033,0.625406,0.038269,-0.060059,0.932251,13.427481,7.900764,0.068702
0.709941,18:03:30.033,0.503380,0.038269,-0.060059,0.932251,13.427481,7.900764,0.068702
0.710735,18:03:30.034,0.347448,0.038269,-0.060059,0.932251,13.427481,7.900764,0.068702
0.711529,18:03:30.035,0.169024,0.038269,-0.060059,0.932251,13.427481,7.900764,0.068702
0.712324,18:03:30.036,-0.097185,0.038269,-0.060059,0.932251,13.427481,7.900764,0.068702
0.713118,18:03:30.037,-0.509087,0.038269,-0.060059,0.932251,13.427481,7.900764,0.068702
0.713912,18:03:30.037,-0.509087,0.038269,-0.060059,0.932251,13.427481,7.900764,0.068702
0.714706,18:03:30.038,-1.655833,0.038269,-0.060059,0.932251,13.427481,7.900764,0.068702
0.715500,18:03:30.039,-2.232227,0.038269,-0.060059,0.932251,13.427481,7.900764,0.068702
0.716294,18:03:30.040,-2.767666,0.037964,-0.064453,0.933899,9.458015,8.030535,1.312977
0.717088,18:03:30.041,-3.203067,0.037964,-0.064453,0.933899,9.458015,8.030535,1.312977
0.717882,18:03:30.041,-3.588785,0.037964,-0.064453,0.933899,9.458015,8.030535,1.312977
0.718676,18:03:30.042,-3.948989,0.037964,-0.064453,0.933899,9.458015,8.030535,1.312977
0.719471,18:03:30.043,-4.353002,0.037964,-0.064453,0.933899,9.458015,8.030535,1.312977
0.720265,18:03:30.044,-4.810559,0.037964,-0.064453,0.933899,9.458015,8.030535,1.312977
0.721059,18:03:30.045,-5.172946,0.037964,-0.064453,0.933899,9.458015,8.030535,1.312977
0.721853,18:03:30.045,-5.345998,0.037964,-0.064453,0.933899,9.458015,8.030535,1.312977
0.722647,18:03:30.046,-5.345998,0.046143,-0.076477,0.931274,4.664122,8.137404,2.763359
0.723441,18:03:30.047,-5.032624,0.046143,-0.076477,0.931274,4.664122,8.137404,2.763359
0.724235,18:03:30.048,-4.675776,0.046143,-0.076477,0.931274,4.664122,8.137404,2.763359
0.725029,18:03:30.049,-4.355856,0.046143,-0.076477,0.931274,4.664122,8.137404,2.763359
0.725824,18:03:30.049,-4.072190,0.046143,-0.076477,0.931274,4.664122,8.137404,2.763359
0.726618,18:03:30.050,-3.854826,0.046143,-0.076477,0.931274,4.664122,8.137404,2.763359
0.727412,18:03:30.051,-3.724407,0.046143,-0.076477,0.931274,4.664122,8.137404,2.763359
0.728206,18:03:30.052,-3.564446,0.046143,-0.076477,0.931274,4.664122,8.137404,2.763359
0.729000,18:03:30.053,-3.402640,0.048401,-0.088806,0.932434,0.015267,9.175572,3.916031
0.729794,18:03:30.053,-3.310323,0.048401,-0.088806,0.932434,0.015267,9.175572,3.916031
0.730588,18:03:30.054,-3.310323,0.048401,-0.088806,0.932434,0.015267,9.175572,3.916031
0.731382,18:03:30.055,-3.170169,0.048401,-0.088806,0.932434,0.015267,9.175572,3.916031
0.732176,18:03:30.056,-3.078523,0.048401,-0.088806,0.932434,0.015267,9.175572,3.916031
0.732971,18:03:30.057,-2.963714,0.048401,-0.088806,0.932434,0.015267,9.175572,3.916031
0.733765,18:03:30.057,-2.870054,0.048401,-0.088806,0.932434,0.015267,9.175572,3.916031
0.734559,18:03:30.058,-2.736446,0.048401,-0.088806,0.932434,0.015267,9.175572,3.916031
0.735353,18:03:30.059,-2.530327,0.048401,-0.088806,0.932434,0.015267,9.175572,3.916031
0.736147,18:03:30.060,-2.261769,0.052002,-0.105103,0.946167,-3.152672,10.671756,4.465649
0.736941,18:03:30.060,-1.910628,0.052002,-0.105103,0.946167,-3.152672,10.671756,4.465649
0.737735,18:03:30.061,-1.563851,0.052002,-0.105103,0.946167,-3.152672,10.671756,4.465649
0.738529,18:03:30.062,-1.231006,0.052002,-0.105103,0.946167,-3.152672,10.671756,4.465649
0.739324,18:03:30.063,-1.231006,0.052002,-0.105103,0.946167,-3.152672,10.671756,4.465649
0.740118,18:03:30.064,-0.927703,0.052002,-0.105103,0.946167,-3.152672,10.671756,4.465649
0.740912,18:03:30.064,-0.822629,0.052002,-0.105103,0.946167,-3.152672,10.671756,4.465649
0.741706,18:03:30.065,-0.578408,0.052002,-0.105103,0.946167,-3.152672,10.671756,4.465649
0.742500,18:03:30.066,-0.185138,0.055725,-0.117126,0.955383,-2.694656,11.389313,4.458015
0.743294,18:03:30.067,0.320760,0.055725,-0.117126,0.955383,-2.694656,11.389313,4.458015
0.744088,18:03:30.068,0.843107,0.055725,-0.117126,0.955383,-2.694656,11.389313,4.458015
0.744882,18:03:30.068,1.208682,0.055725,-0.117126,0.955383,-2.694656,11.389313,4.458015
0.745676,18:03:30.069,1.417487,0.055725,-0.117126,0.955383,-2.694656,11.389313,4.458015
0.746471,18:03:30.070,1.458106,0.055725,-0.117126,0.955383,-2.694656,11.389313,4.458015
0.747265,18:03:30.071,1.458106,0.055725,-0.117126,0.955383,-2.694656,11.389313,4.458015
0.748059,18:03:30.072,1.158999,0.055725,-0.117126,0.955383,-2.694656,11.389313,4.458015
0.748853,18:03:30.072,0.880369,0.055725,-0.117126,0.955383,-2.694656,11.389313,4.458015
0.749647,18:03:30.073,0.508415,0.054321,-0.122742,0.959961,0.335878,10.473283,3.763359
0.750441,18:03:30.074,0.098528,0.054321,-0.122742,0.959961,0.335878,10.473283,3.763359
0.751235,18:03:30.075,-0.298604,0.054321,-0.122742,0.959961,0.335878,10.473283,3.763359
0.752029,18:03:30.076,-0.716884,0.054321,-0.122742,0.959961,0.335878,10.473283,3.763359
0.752824,18:03:30.076,-1.234531,0.054321,-0.122742,0.959961,0.335878,10.473283,3.763359
0.753618,18:03:30.077,-1.828382,0.054321,-0.122742,0.959961,0.335878,10.473283,3.763359
0.754412,18:03:30.078,-2.356100,0.054321,-0.122742,0.959961,0.335878,10.473283,3.763359
0.755206,18:03:30.079,-2.752056,0.054321,-0.122742,0.959961,0.335878,10.473283,3.763359
0.756000,18:03:30.080,-2.752056,0.054321,-0.122742,0.959961,0.335878,10.473283,3.763359
0.756794,18:03:30.080,-3.137774,0.056519,-0.131836,0.961548,5.938931,9.618320,2.687023
0.757588,18:03:30.081,-3.126864,0.056519,-0.131836,0.961548,5.938931,9.618320,2.687023
0.758382,18:03:30.082,-3.063920,0.056519,-0.131836,0.961548,5.938931,9.618320,2.687023
0.759176,18:03:30.083,-3.043946,0.056519,-0.131836,0.961548,5.938931,9.618320,2.687023
0.759971,18:03:30.084,-3.083223,0.056519,-0.131836,0.961548,5.938931,9.618320,2.687023
0.760765,18:03:30.084,-3.001816,0.056519,-0.131836,0.961548,5.938931,9.618320,2.687023
0.761559,18:03:30.085,-2.741985,0.056519,-0.131836,0.961548,5.938931,9.618320,2.687023
0.762353,18:03:30.086,-2.264454,0.056519,-0.131836,0.961548,5.938931,9.618320,2.687023
0.763147,18:03:30.087,-1.591379,0.056763,-0.127319,0.959961,9.320611,9.618320,2.229008
0.763941,18:03:30.087,-1.591379,0.056763,-0.127319,0.959961,9.320611,9.618320,2.229008
0.764735,18:03:30.088,-0.265370,0.056763,-0.127319,0.959961,9.320611,9.618320,2.229008
0.765529,18:03:30.089,0.192859,0.056763,-0.127319,0.959961,9.320611,9.618320,2.229008
0.766324,18:03:30.090,0.478370,0.056763,-0.127319,0.959961,9.320611,9.618320,2.229008
0.767118,18:03:30.091,0.589654,0.056763,-0.127319,0.959961,9.320611,9.618320,2.229008
0.767912,18:03:30.091,0.644373,0.056763,-0.127319,0.959961,9.320611,9.618320,2.229008
0.768706,18:03:30.092,0.603754,0.056763,-0.127319,0.959961,9.320611,9.618320,2.229008
0.769500,18:03:30.093,0.438926,0.054077,-0.122742,0.959717,16.099237,9.511451,1.244275
0.770294,18:03:30.094,0.181613,0.054077,-0.122742,0.959717,16.099237,9.511451,1.244275
0.771088,18:03:30.095,-0.110948,0.054077,-0.122742,0.959717,16.099237,9.511451,1.244275
0.771882,18:03:30.095,-0.483909,0.054077,-0.122742,0.959717,16.099237,9.511451,1.244275
0.772676,18:03:30.096,-0.483909,0.054077,-0.122742,0.959717,16.099237,9.511451,1.244275
0.773471,18:03:30.097,-1.648447,0.054077,-0.122742,0.959717,16.099237,9.511451,1.244275
0.774265,18:03:30.098,-2.312627,0.054077,-0.122742,0.959717,16.099237,9.511451,1.244275
0.775059,18:03:30.099,-2.915373,0.054077,-0.122742,0.959717,16.099237,9.511451,1.244275
0.775853,18:03:30.099,-3.439399,0.054077,-0.122742,0.959717,16.099237,9.511451,1.244275
0.776647,18:03:30.100,-3.819242,0.053894,-0.111633,0.957764,21.511450,8.938931,0.862595
0.777441,18:03:30.101,-4.107271,0.053894,-0.111633,0.957764,21.511450,8.938931,0.862595
0.778235,18:03:30.102,-4.344106,0.053894,-0.111633,0.957764,21.511450,8.938931,0.862595
0.779029,18:03:30.103,-4.578088,0.053894,-0.111633,0.957764,21.511450,8.938931,0.862595
0.779824,18:03:30.103,-4.866117,0.053894,-0.111633,0.957764,21.511450,8.938931,0.862595
0.780618,18:03:30.104,-5.055116,0.053894,-0.111633,0.957764,21.511450,8.938931,0.862595
0.781412,18:03:30.105,-5.055116,0.053894,-0.111633,0.957764,21.511450,8.938931,0.862595
0.782206,18:03:30.106,-4.767926,0.053894,-0.111633,0.957764,21.511450,8.938931,0.862595
0.783000,18:03:30.107,-4.225101,0.053894,-0.111633,0.957764,21.511450,8.938931,0.862595
0.783794,18:03:30.107,-3.471962,0.057312,-0.095398,0.949280,24.770992,7.702290,0.633588
0.784588,18:03:30.108,-2.685924,0.057312,-0.095398,0.949280,24.770992,7.702290,0.633588
0.785382,18:03:30.109,-1.952255,0.057312,-0.095398,0.949280,24.770992,7.702290,0.633588
0.786176,18:03:30.110,-1.265248,0.057312,-0.095398,0.949280,24.770992,7.702290,0.633588
0.786971,18:03:30.111,-0.698085,0.057312,-0.095398,0.949280,24.770992,7.702290,0.633588
0.787765,18:03:30.111,-0.182788,0.057312,-0.095398,0.949280,24.770992,7.702290,0.633588
0.788559,18:03:30.112,0.293904,0.057312,-0.095398,0.949280,24.770992,7.702290,0.633588
0.789353,18:03:30.113,0.293904,0.057312,-0.095398,0.949280,24.770992,7.702290,0.633588
0.790147,18:03:30.114,1.130465,0.056030,-0.078064,0.939148,25.656488,7.473282,0.267176
0.790941,18:03:30.114,1.588357,0.056030,-0.078064,0.939148,25.656488,7.473282,0.267176
0.791735,18:03:30.115,2.021408,0.056030,-0.078064,0.939148,25.656488,7.473282,0.267176
0.792529,18:03:30.116,2.308766,0.056030,-0.078064,0.939148,25.656488,7.473282,0.267176
0.793324,18:03:30.117,2.490379,0.056030,-0.078064,0.939148,25.656488,7.473282,0.267176
0.794118,18:03:30.118,2.541405,0.056030,-0.078064,0.939148,25.656488,7.473282,0.267176
0.794912,18:03:30.118,2.533684,0.056030,-0.078064,0.939148,25.656488,7.473282,0.267176
0.795706,18:03:30.119,2.553155,0.056030,-0.078064,0.939148,25.656488,7.473282,0.267176
0.796500,18:03:30.120,2.604852,0.058960,-0.067078,0.935425,23.916031,7.984733,-0.022901
0.797294,18:03:30.121,2.687434,0.058960,-0.067078,0.935425,23.916031,7.984733,-0.022901
0.798088,18:03:30.122,2.687434,0.058960,-0.067078,0.935425,23.916031,7.984733,-0.022901
0.798882,18:03:30.122,2.967071,0.058960,-0.067078,0.935425,23.916031,7.984733,-0.022901
0.799676,18:03:30.123,3.100343,0.058960,-0.067078,0.935425,23.916031,7.984733,-0.022901
0.800471,18:03:30.124,3.132570,0.058960,-0.067078,0.935425,23.916031,7.984733,-0.022901
0.801265,18:03:30.125,3.172183,0.058960,-0.067078,0.935425,23.916031,7.984733,-0.022901
0.802059,18:03:30.126,3.270878,0.058960,-0.067078,0.935425,23.916031,7.984733,-0.022901
0.802853,18:03:30.126,3.434699,0.058960,-0.067078,0.935425,23.916031,7.984733,-0.022901
0.803647,18:03:30.127,3.791882,0.060303,-0.051819,0.933777,20.908398,7.916030,-0.244275
0.804441,18:03:30.128,4.261860,0.060303,-0.051819,0.933777,20.908398,7.916030,-0.244275
0.805235,18:03:30.129,4.652613,0.060303,-0.051819,0.933777,20.908398,7.916030,-0.244275
0.806029,18:03:30.130,4.652613,0.060303,-0.051819,0.933777,20.908398,7.916030,-0.244275
0.806824,18:03:30.130,5.259556,0.060303,-0.051819,0.933777,20.908398,7.916030,-0.244275
0.807618,18:03:30.131,5.497230,0.060303,-0.051819,0.933777,20.908398,7.916030,-0.244275
0.808412,18:03:30.132,5.499916,0.060303,-0.051819,0.933777,20.908398,7.916030,-0.244275
0.809206,18:03:30.133,5.499916,0.060303,-0.051819,0.933777,20.908398,7.916030,-0.244275
0.810000,18:03:30.134,5.499916,0.066711,-0.050842,0.929993,16.641222,8.175572,-0.290076
0.810794,18:03:30.134,5.499916,0.066711,-0.050842,0.929993,16.641222,8.175572,-0.290076
0.811588,18:03:30.135,5.499916,0.066711,-0.050842,0.929993,16.641222,8.175572,-0.290076
0.812382,18:03:30.136,5.499916,0.066711,-0.050842,0.929993,16.641222,8.175572,-0.290076
0.813176,18:03:30.137,5.499916,0.066711,-0.050842,0.929993,16.641222,8.175572,-0.290076
0.813971,18:03:30.138,5.499916,0.066711,-0.050842,0.929993,16.641222,8.175572,-0.290076
0.814765,18:03:30.138,5.499916,0.066711,-0.050842,0.929993,16.641222,8.175572,-0.290076
0.815559,18:03:30.139,5.499916,0.066711,-0.050842,0.929993,16.641222,8.175572,-0.290076
0.816353,18:03:30.140,5.499916,0.066711,-0.050842,0.929993,16.641222,8.175572,-0.290076
0.817147,18:03:30.141,5.353552,0.072266,-0.047729,0.928711,11.839695,9.587787,0.305344
0.817941,18:03:30.141,5.200473,0.072266,-0.047729,0.928711,11.839695,9.587787,0.305344
0.818735,18:03:30.142,5.217258,0.072266,-0.047729,0.928711,11.839695,9.587787,0.305344
0.819529,18:03:30.143,5.499916,0.072266,-0.047729,0.928711,11.839695,9.587787,0.305344
0.820324,18:03:30.144,5.499916,0.072266,-0.047729,0.928711,11.839695,9.587787,0.305344
0.821118,18:03:30.145,5.499916,0.072266,-0.047729,0.928711,11.839695,9.587787,0.305344
0.821912,18:03:30.145,5.499916,0.072266,-0.047729,0.928711,11.839695,9.587787,0.305344
0.822706,18:03:30.146,2.317327,0.072266,-0.047729,0.928711,11.839695,9.587787,0.305344
0.823500,18:03:30.147,3.455177,0.072266,-0.047729,0.928711,11.839695,9.587787,0.305344
0.824294,18:03:30.148,3.189975,0.073669,-0.050415,0.929993,7.045802,11.335877,1.083969
0.825088,18:03:30.149,2.703548,0.073669,-0.050415,0.929993,7.045802,11.335877,1.083969
0.825882,18:03:30.149,2.430961,0.073669,-0.050415,0.929993,7.045802,11.335877,1.083969
0.826676,18:03:30.150,2.192279,0.073669,-0.050415,0.929993,7.045802,11.335877,1.083969
0.827471,18:03:30.151,1.952087,0.073669,-0.050415,0.929993,7.045802,11.335877,1.083969
0.828265,18:03:30.152,1.925399,0.073669,-0.050415,0.929993,7.045802,11.335877,1.083969
0.829059,18:03:30.153,2.302724,0.073669,-0.050415,0.929993,7.045802,11.335877,1.083969
0.829853,18:03:30.153,2.826078,0.073669,-0.050415,0.929993,7.045802,11.335877,1.083969
0.830647,18:03:30.154,3.330968,0.075928,-0.057312,0.935791,2.969466,12.549619,1.511450
0.831441,18:03:30.155,3.908705,0.075928,-0.057312,0.935791,2.969466,12.549619,1.511450
0.832235,18:03:30.156,5.499916,0.075928,-0.057312,0.935791,2.969466,12.549619,1.511450
0.833029,18:03:30.157,5.499916,0.075928,-0.057312,0.935791,2.969466,12.549619,1.511450
0.833824,18:03:30.157,5.499916,0.075928,-0.057312,0.935791,2.969466,12.549619,1.511450
0.834618,18:03:30.158,5.499916,0.075928,-0.057312,0.935791,2.969466,12.549619,1.511450
0.835412,18:03:30.159,5.499916,0.075928,-0.057312,0.935791,2.969466,12.549619,1.511450
0.836206,18:03:30.160,5.499916,0.075928,-0.057312,0.935791,2.969466,12.549619,1.511450
0.837000,18:03:30.161,5.499916,0.075623,-0.063843,0.935974,0.557252,13.839695,1.809160
0.837794,18:03:30.161,5.499916,0.075623,-0.063843,0.935974,0.557252,13.839695,1.809160
0.838588,18:03:30.162,5.499916,0.075623,-0.063843,0.935974,0.557252,13.839695,1.809160
0.839382,18:03:30.163,5.499916,0.075623,-0.063843,0.935974,0.557252,13.839695,1.809160
0.840176,18:03:30.164,0.108263,0.075623,-0.063843,0.935974,0.557252,13.839695,1.809160
0.840971,18:03:30.165,0.550378,0.075623,-0.063843,0.935974,0.557252,13.839695,1.809160
0.841765,18:03:30.165,-0.894133,0.075623,-0.063843,0.935974,0.557252,13.839695,1.809160
0.842559,18:03:30.166,-2.491554,0.075623,-0.063843,0.935974,0.557252,13.839695,1.809160
0.843353,18:03:30.167,-3.730617,0.075623,-0.063843,0.935974,0.557252,13.839695,1.809160
0.844147,18:03:30.168,-4.635996,0.079590,-0.074463,0.943237,-0.381679,14.969465,1.755725
0.844941,18:03:30.168,-5.251164,0.079590,-0.074463,0.943237,-0.381679,14.969465,1.755725
0.845735,18:03:30.169,-5.492866,0.079590,-0.074463,0.943237,-0.381679,14.969465,1.755725
0.846529,18:03:30.170,-5.494209,0.079590,-0.074463,0.943237,-0.381679,14.969465,1.755725
0.847324,18:03:30.171,-5.494545,0.079590,-0.074463,0.943237,-0.381679,14.969465,1.755725
0.848118,18:03:30.172,-5.494713,0.079590,-0.074463,0.943237,-0.381679,14.969465,1.755725
0.848912,18:03:30.172,-5.494713,0.079590,-0.074463,0.943237,-0.381679,14.969465,1.755725
0.849706,18:03:30.173,-5.494713,0.079590,-0.074463,0.943237,-0.381679,14.969465,1.755725
0.850500,18:03:30.174,-4.998215,0.079590,-0.074463,0.943237,-0.381679,14.969465,1.755725
0.851294,18:03:30.175,-4.097032,0.078064,-0.080017,0.946411,-0.160305,15.931297,1.526718
0.852088,18:03:30.176,-2.999298,0.078064,-0.080017,0.946411,-0.160305,15.931297,1.526718
0.852882,18:03:30.176,-1.833082,0.078064,-0.080017,0.946411,-0.160305,15.931297,1.526718
0.853676,18:03:30.177,-0.787213,0.078064,-0.080017,0.946411,-0.160305,15.931297,1.526718
0.854471,18:03:30.178,0.084428,0.078064,-0.080017,0.946411,-0.160305,15.931297,1.526718
0.855265,18:03:30.179,0.811215,0.078064,-0.080017,0.946411,-0.160305,15.931297,1.526718
0.856059,18:03:30.180,1.416480,0.078064,-0.080017,0.946411,-0.160305,15.931297,1.526718
0.856853,18:03:30.180,1.912978,0.078064,-0.080017,0.946411,-0.160305,15.931297,1.526718
0.857647,18:03:30.181,2.288960,0.077393,-0.086060,0.945801,0.938931,16.709923,1.770992
0.858441,18:03:30.182,2.618280,0.077393,-0.086060,0.945801,0.938931,16.709923,1.770992
0.859235,18:03:30.183,2.803418,0.077393,-0.086060,0.945801,0.938931,16.709923,1.770992
0.860029,18:03:30.184,2.690455,0.077393,-0.086060,0.945801,0.938931,16.709923,1.770992
0.860824,18:03:30.184,2.331594,0.077393,-0.086060,0.945801,0.938931,16.709923,1.770992
0.861618,18:03:30.185,1.895186,0.077393,-0.086060,0.945801,0.938931,16.709923,1.770992
0.862412,18:03:30.186,1.444678,0.077393,-0.086060,0.945801,0.938931,16.709923,1.770992
0.863206,18:03:30.187,1.025055,0.077393,-0.086060,0.945801,0.938931,16.709923,1.770992
0.864000,18:03:30.188,0.657465,0.077515,-0.088867,0.949158,1.801527,16.954199,1.671756
0.864794,18:03:30.188,0.280140,0.077515,-0.088867,0.949158,1.801527,16.954199,1.671756
0.865588,18:03:30.189,-0.199237,0.077515,-0.088867,0.949158,1.801527,16.954199,1.671756
0.866382,18:03:30.190,-0.691035,0.077515,-0.088867,0.949158,1.801527,16.954199,1.671756
0.867176,18:03:30.191,-1.218753,0.077515,-0.088867,0.949158,1.801527,16.954199,1.671756
0.867971,18:03:30.192,-1.755200,0.077515,-0.088867,0.949158,1.801527,16.954199,1.671756
0.868765,18:03:30.192,-2.288624,0.077515,-0.088867,0.949158,1.801527,16.954199,1.671756
0.869559,18:03:30.193,-2.876432,0.077515,-0.088867,0.949158,1.801527,16.954199,1.671756
0.870353,18:03:30.194,-3.426307,0.077515,-0.088867,0.949158,1.801527,16.954199,1.671756
0.871147,18:03:30.195,-3.913069,0.074097,-0.087830,0.948914,3.709924,17.427481,1.687023
0.871941,18:03:30.195,-4.364920,0.074097,-0.087830,0.948914,3.709924,17.427481,1.687023
0.872735,18:03:30.196,-4.821302,0.074097,-0.087830,0.948914,3.709924,17.427481,1.687023
0.873529,18:03:30.197,-5.329885,0.074097,-0.087830,0.948914,3.709924,17.427481,1.687023
0.874324,18:03:30.198,-5.493538,0.074097,-0.087830,0.948914,3.709924,17.427481,1.687023
0.875118,18:03:30.199,-5.494377,0.074097,-0.087830,0.948914,3.709924,17.427481,1.687023
0.875912,18:03:30.199,-5.494713,0.074097,-0.087830,0.948914,3.709924,17.427481,1.687023
0.876706,18:03:30.200,-5.494881,0.074097,-0.087830,0.948914,3.709924,17.427481,1.687023
0.877500,18:03:30.201,-5.494713,0.071594,-0.087708,0.950195,5.656488,17.877863,1.358779
0.878294,18:03:30.202,-5.494713,0.071594,-0.087708,0.950195,5.656488,17.877863,1.358779
0.879088,18:03:30.203,-5.494881,0.071594,-0.087708,0.950195,5.656488,17.877863,1.358779
0.879882,18:03:30.203,-5.494881,0.071594,-0.087708,0.950195,5.656488,17.877863,1.358779
0.880676,18:03:30.204,-5.495048,0.071594,-0.087708,0.950195,5.656488,17.877863,1.358779
0.881471,18:03:30.205,-5.494881,0.071594,-0.087708,0.950195,5.656488,17.877863,1.358779
0.882265,18:03:30.206,-5.494713,0.071594,-0.087708,0.950195,5.656488,17.877863,1.358779
0.883059,18:03:30.207,-5.494881,0.071594,-0.087708,0.950195,5.656488,17.877863,1.358779
0.883853,18:03:30.207,-5.495048,0.071594,-0.087708,0.950195,5.656488,17.877863,1.358779
0.884647,18:03:30.208,-5.495048,0.071960,-0.085754,0.946411,7.114504,17.839695,0.633588
0.885441,18:03:30.209,-5.494881,0.071960,-0.085754,0.946411,7.114504,17.839695,0.633588
0.886235,18:03:30.210,-5.495048,0.071960,-0.085754,0.946411,7.114504,17.839695,0.633588
0.887029,18:03:30.211,-5.494881,0.071960,-0.085754,0.946411,7.114504,17.839695,0.633588
0.887824,18:03:30.211,-5.495048,0.071960,-0.085754,0.946411,7.114504,17.839695,0.633588
0.888618,18:03:30.212,-5.495048,0.071960,-0.085754,0.946411,7.114504,17.839695,0.633588
0.889412,18:03:30.213,-5.446036,0.071960,-0.085754,0.946411,7.114504,17.839695,0.633588
0.890206,18:03:30.214,-5.052262,0.071960,-0.085754,0.946411,7.114504,17.839695,0.633588
0.891000,18:03:30.215,-4.626932,0.067871,-0.085205,0.939880,7.748092,17.541985,0.404580
0.891794,18:03:30.215,-4.215030,0.067871,-0.085205,0.939880,7.748092,17.541985,0.404580
0.892588,18:03:30.216,-3.915755,0.067871,-0.085205,0.939880,7.748092,17.541985,0.404580
0.893382,18:03:30.217,-3.747234,0.067871,-0.085205,0.939880,7.748092,17.541985,0.404580
0.894176,18:03:30.218,-3.627893,0.067871,-0.085205,0.939880,7.748092,17.541985,0.404580
0.894971,18:03:30.219,-3.482200,0.067871,-0.085205,0.939880,7.748092,17.541985,0.404580
0.895765,18:03:30.219,-3.331975,0.067871,-0.085205,0.939880,7.748092,17.541985,0.404580
0.896559,18:03:30.220,-3.177722,0.067871,-0.085205,0.939880,7.748092,17.541985,0.404580
0.897353,18:03:30.221,-2.983856,0.067871,-0.085205,0.939880,7.748092,17.541985,0.404580
0.898147,18:03:30.222,-2.771023,0.068909,-0.077759,0.940796,7.572519,17.290077,0.282443
0.898941,18:03:30.222,-2.570275,0.068909,-0.077759,0.940796,7.572519,17.290077,0.282443
0.899735,18:03:30.223,-2.435996,0.068909,-0.077759,0.940796,7.572519,17.290077,0.282443
0.900529,18:03:30.224,-2.314305,0.068909,-0.077759,0.940796,7.572519,17.290077,0.282443
0.901324,18:03:30.225,-2.104997,0.068909,-0.077759,0.940796,7.572519,17.290077,0.282443
0.902118,18:03:30.226,-1.763928,0.068909,-0.077759,0.940796,7.572519,17.290077,0.282443
0.902912,18:03:30.226,-1.302007,0.068909,-0.077759,0.940796,7.572519,17.290077,0.282443
0.903706,18:03:30.227,-0.721248,0.068909,-0.077759,0.940796,7.572519,17.290077,0.282443
0.904500,18:03:30.228,-0.134447,0.069336,-0.073608,0.941956,6.923664,17.152672,0.526718
0.905294,18:03:30.229,0.372793,0.069336,-0.073608,0.941956,6.923664,17.152672,0.526718
0.906088,18:03:30.230,0.836728,0.069336,-0.073608,0.941956,6.923664,17.152672,0.526718
0.906882,18:03:30.230,1.253162,0.069336,-0.073608,0.941956,6.923664,17.152672,0.526718
0.907676,18:03:30.231,1.613703,0.069336,-0.073608,0.941956,6.923664,17.152672,0.526718
0.908471,18:03:30.232,1.932448,0.069336,-0.073608,0.941956,6.923664,17.152672,0.526718
0.909265,18:03:30.233,2.161395,0.069336,-0.073608,0.941956,6.923664,17.152672,0.526718
0.910059,18:03:30.234,2.321523,0.069336,-0.073608,0.941956,6.923664,17.152672,0.526718
0.910853,18:03:30.234,2.475944,0.069336,-0.073608,0.941956,6.923664,17.152672,0.526718
0.911647,18:03:30.235,2.565911,0.068909,-0.072815,0.939148,5.938931,17.022902,0.809160
0.912441,18:03:30.236,2.529320,0.068909,-0.072815,0.939148,5.938931,17.022902,0.809160
0.913235,18:03:30.237,2.352071,0.068909,-0.072815,0.939148,5.938931,17.022902,0.809160
0.914029,18:03:30.238,2.088884,0.068909,-0.072815,0.939148,5.938931,17.022902,0.809160
0.914824,18:03:30.238,1.800519,0.068909,-0.072815,0.939148,5.938931,17.022902,0.809160
0.915618,18:03:30.239,1.523232,0.068909,-0.072815,0.939148,5.938931,17.022902,0.809160
0.916412,18:03:30.240,1.301671,0.068909,-0.072815,0.939148,5.938931,17.022902,0.809160
0.917206,18:03:30.241,1.087160,0.068909,-0.072815,0.939148,5.938931,17.022902,0.809160
0.918000,18:03:30.242,0.842435,0.065979,-0.076050,0.940186,4.488550,17.343512,1.183206
0.918794,18:03:30.242,0.577234,0.065979,-0.076050,0.940186,4.488550,17.343512,1.183206
0.919588,18:03:30.243,0.257984,0.065979,-0.076050,0.940186,4.488550,17.343512,1.183206
0.920382,18:03:30.244,-0.085100,0.065979,-0.076050,0.940186,4.488550,17.343512,1.183206
0.921176,18:03:30.245,-0.324117,0.065979,-0.076050,0.940186,4.488550,17.343512,1.183206
0.921971,18:03:30.246,-0.405356,0.065979,-0.076050,0.940186,4.488550,17.343512,1.183206
0.922765,18:03:30.246,-0.348623,0.065979,-0.076050,0.940186,4.488550,17.343512,1.183206
0.923559,18:03:30.247,-0.200244,0.065979,-0.076050,0.940186,4.488550,17.343512,1.183206
0.924353,18:03:30.248,-0.020310,0.065979,-0.076050,0.940186,4.488550,17.343512,1.183206
0.925147,18:03:30.249,0.091142,0.069092,-0.077637,0.944824,3.343511,17.679390,1.267176
0.925941,18:03:30.249,0.157610,0.069092,-0.077637,0.944824,3.343511,17.679390,1.267176
0.926735,18:03:30.250,0.203098,0.069092,-0.077637,0.944824,3.343511,17.679390,1.267176
0.927529,18:03:30.251,0.234485,0.069092,-0.077637,0.944824,3.343511,17.679390,1.267176
0.928324,18:03:30.252,0.266377,0.069092,-0.077637,0.944824,3.343511,17.679390,1.267176
0.929118,18:03:30.253,0.257313,0.069092,-0.077637,0.944824,3.343511,17.679390,1.267176
0.929912,18:03:30.253,0.240528,0.069092,-0.077637,0.944824,3.343511,17.679390,1.267176
0.930706,18:03:30.254,0.270405,0.069092,-0.077637,0.944824,3.343511,17.679390,1.267176
0.931500,18:03:30.255,0.280476,0.072510,-0.080139,0.940674,2.809160,17.809160,0.702290
0.932294,18:03:30.256,0.210483,0.072510,-0.080139,0.940674,2.809160,17.809160,0.702290
0.933088,18:03:30.257,0.064958,0.072510,-0.080139,0.940674,2.809160,17.809160,0.702290
0.933882,18:03:30.257,-0.144518,0.072510,-0.080139,0.940674,2.809160,17.809160,0.702290
0.934676,18:03:30.258,-0.345266,0.072510,-0.080139,0.940674,2.809160,17.809160,0.702290
0.935471,18:03:30.259,-0.483238,0.072510,-0.080139,0.940674,2.809160,17.809160,0.702290
0.936265,18:03:30.260,-0.578912,0.072510,-0.080139,0.940674,2.809160,17.809160,0.702290
0.937059,18:03:30.261,-0.645380,0.072510,-0.080139,0.940674,2.809160,17.809160,0.702290
0.937853,18:03:30.261,-0.659144,0.072510,-0.080139,0.940674,2.809160,17.809160,0.702290
0.938647,18:03:30.262,-0.650752,0.069702,-0.081177,0.944641,2.847328,17.687023,0.488550
0.939441,18:03:30.263,-0.686503,0.069702,-0.081177,0.944641,2.847328,17.687023,0.488550
0.940235,18:03:30.264,-0.773281,0.069702,-0.081177,0.944641,2.847328,17.687023,0.488550
0.941029,18:03:30.265,-0.815915,0.069702,-0.081177,0.944641,2.847328,17.687023,0.488550
0.941824,18:03:30.265,-0.740047,0.069702,-0.081177,0.944641,2.847328,17.687023,0.488550
0.942618,18:03:30.266,-0.547692,0.069702,-0.081177,0.944641,2.847328,17.687023,0.488550
0.943412,18:03:30.267,-0.281651,0.069702,-0.081177,0.944641,2.847328,17.687023,0.488550
0.944206,18:03:30.268,0.026688,0.069702,-0.081177,0.944641,2.847328,17.687023,0.488550
0.945000,18:03:30.269,0.237507,0.069275,-0.083984,0.948608,3.297710,17.442749,0.351145
0.945794,18:03:30.269,0.350973,0.069275,-0.083984,0.948608,3.297710,17.442749,0.351145
0.946588,18:03:30.270,0.408042,0.069275,-0.083984,0.948608,3.297710,17.442749,0.351145
0.947382,18:03:30.271,0.385885,0.069275,-0.083984,0.948608,3.297710,17.442749,0.351145
0.948176,18:03:30.272,0.328481,0.069275,-0.083984,0.948608,3.297710,17.442749,0.351145
0.948971,18:03:30.273,0.236164,0.069275,-0.083984,0.948608,3.297710,17.442749,0.351145
0.949765,18:03:30.273,0.043977,0.069275,-0.083984,0.948608,3.297710,17.442749,0.351145
0.950559,18:03:30.274,-0.179767,0.069275,-0.083984,0.948608,3.297710,17.442749,0.351145
0.951353,18:03:30.275,-0.370108,0.069275,-0.083984,0.948608,3.297710,17.442749,0.351145
0.952147,18:03:30.276,-0.590494,0.070923,-0.083984,0.947510,3.534351,17.259542,0.511450
0.952941,18:03:30.276,-0.879362,0.070923,-0.083984,0.947510,3.534351,17.259542,0.511450
0.953735,18:03:30.277,-1.208682,0.070923,-0.083984,0.947510,3.534351,17.259542,0.511450
0.954529,18:03:30.278,-1.576272,0.070923,-0.083984,0.947510,3.534351,17.259542,0.511450
0.955324,18:03:30.279,-1.910292,0.070923,-0.083984,0.947510,3.534351,17.259542,0.511450
0.956118,18:03:30.280,-2.215106,0.070923,-0.083984,0.947510,3.534351,17.259542,0.511450
0.956912,18:03:30.280,-2.481315,0.070923,-0.083984,0.947510,3.534351,17.259542,0.511450
0.957706,18:03:30.281,-2.747189,0.070923,-0.083984,0.947510,3.534351,17.259542,0.511450
0.958500,18:03:30.282,-2.994934,0.069336,-0.083008,0.946594,3.961832,17.183207,0.595420
0.959294,18:03:30.283,-3.131899,0.069336,-0.083008,0.946594,3.961832,17.183207,0.595420
0.960088,18:03:30.284,-3.191989,0.069336,-0.083008,0.946594,3.961832,17.183207,0.595420
0.960882,18:03:30.284,-3.248722,0.069336,-0.083008,0.946594,3.961832,17.183207,0.595420
0.961676,18:03:30.285,-3.302770,0.069336,-0.083008,0.946594,3.961832,17.183207,0.595420
0.962471,18:03:30.286,-3.309987,0.069336,-0.083008,0.946594,3.961832,17.183207,0.595420
0.963265,18:03:30.287,-3.299916,0.069336,-0.083008,0.946594,3.961832,17.183207,0.595420
0.964059,18:03:30.288,-3.122667,0.069336,-0.083008,0.946594,3.961832,17.183207,0.595420
0.964853,18:03:30.288,-2.738628,0.069336,-0.083008,0.946594,3.961832,17.183207,0.595420
0.965647,18:03:30.289,-2.330587,0.069153,-0.087891,0.945312,5.076336,17.587786,0.725191
0.966441,18:03:30.290,-1.876555,0.069153,-0.087891,0.945312,5.076336,17.587786,0.725191
0.967235,18:03:30.291,-1.351690,0.069153,-0.087891,0.945312,5.076336,17.587786,0.725191
0.968029,18:03:30.292,-0.806516,0.069153,-0.087891,0.945312,5.076336,17.587786,0.725191
0.968824,18:03:30.292,-0.176410,0.069153,-0.087891,0.945312,5.076336,17.587786,0.725191
0.969618,18:03:30.293,0.597375,0.069153,-0.087891,0.945312,5.076336,17.587786,0.725191
0.970412,18:03:30.294,1.548074,0.069153,-0.087891,0.945312,5.076336,17.587786,0.725191
0.971206,18:03:30.295,2.452445,0.069153,-0.087891,0.945312,5.076336,17.587786,0.725191
0.972000,18:03:30.296,3.264164,0.067627,-0.086792,0.945984,5.656488,17.587786,0.740458
0.972794,18:03:30.296,3.906020,0.067627,-0.086792,0.945984,5.656488,17.587786,0.740458
0.973588,18:03:30.297,4.398489,0.067627,-0.086792,0.945984,5.656488,17.587786,0.740458
0.974382,18:03:30.298,4.698939,0.067627,-0.086792,0.945984,5.656488,17.587786,0.740458
0.975176,18:03:30.299,4.877867,0.067627,-0.086792,0.945984,5.656488,17.587786,0.740458
0.975971,18:03:30.300,5.109163,0.067627,-0.086792,0.945984,5.656488,17.587786,0.740458
0.976765,18:03:30.300,5.308568,0.067627,-0.086792,0.945984,5.656488,17.587786,0.740458
0.977559,18:03:30.301,5.492531,0.067627,-0.086792,0.945984,5.656488,17.587786,0.740458
0.978353,18:03:30.302,5.499916,0.067627,-0.086792,0.945984,5.656488,17.587786,0.740458
0.979147,18:03:30.303,5.499916,0.070190,-0.086365,0.950012,6.366412,16.725191,0.687023
0.979941,18:03:30.303,5.499916,0.070190,-0.086365,0.950012,6.366412,16.725191,0.687023
0.980735,18:03:30.304,5.499916,0.070190,-0.086365,0.950012,6.366412,16.725191,0.687023
0.981529,18:03:30.305,5.499916,0.070190,-0.086365,0.950012,6.366412,16.725191,0.687023
0.982324,18:03:30.306,5.499916,0.070190,-0.086365,0.950012,6.366412,16.725191,0.687023
0.983118,18:03:30.307,5.499916,0.070190,-0.086365,0.950012,6.366412,16.725191,0.687023
0.983912,18:03:30.307,5.499916,0.070190,-0.086365,0.950012,6.366412,16.725191,0.687023
0.984706,18:03:30.308,5.499916,0.070190,-0.086365,0.950012,6.366412,16.725191,0.687023
0.985500,18:03:30.309,5.499916,0.071899,-0.083069,0.949158,7.068702,16.702290,0.465649
0.986294,18:03:30.310,5.499916,0.071899,-0.083069,0.949158,7.068702,16.702290,0.465649
0.987088,18:03:30.311,5.499916,0.071899,-0.083069,0.949158,7.068702,16.702290,0.465649
0.987882,18:03:30.311,5.499916,0.071899,-0.083069,0.949158,7.068702,16.702290,0.465649
0.988676,18:03:30.312,5.499916,0.071899,-0.083069,0.949158,7.068702,16.702290,0.465649
0.989471,18:03:30.313,5.499916,0.071899,-0.083069,0.949158,7.068702,16.702290,0.465649
0.990265,18:03:30.314,5.499916,0.071899,-0.083069,0.949158,7.068702,16.702290,0.465649
0.991059,18:03:30.315,5.499916,0.071899,-0.083069,0.949158,7.068702,16.702290,0.465649
0.991853,18:03:30.315,5.499916,0.071899,-0.083069,0.949158,7.068702,16.702290,0.465649
0.992647,18:03:30.316,5.499916,0.069336,-0.076294,0.948120,8.038168,16.923664,0.328244
0.993441,18:03:30.317,5.499916,0.069336,-0.076294,0.948120,8.038168,16.923664,0.328244
0.994235,18:03:30.318,5.499916,0.069336,-0.076294,0.948120,8.038168,16.923664,0.328244
0.995029,18:03:30.319,5.499916,0.069336,-0.076294,0.948120,8.038168,16.923664,0.328244
0.995824,18:03:30.319,5.499916,0.069336,-0.076294,0.948120,8.038168,16.923664,0.328244
0.996618,18:03:30.320,5.499916,0.069336,-0.076294,0.948120,8.038168,16.923664,0.328244
0.997412,18:03:30.321,5.499916,0.069336,-0.076294,0.948120,8.038168,16.923664,0.328244
0.998206,18:03:30.322,5.499916,0.069336,-0.076294,0.948120,8.038168,16.923664,0.328244
0.999000,18:03:30.323,5.499916,0.067566,-0.070984,0.942078,8.778625,16.496183,-0.061069
0.999794,18:03:30.323,5.499916,0.067566,-0.070984,0.942078,8.778625,16.496183,-0.061069
1.000588,18:03:30.324,5.499916,0.067566,-0.070984,0.942078,8.778625,16.496183,-0.061069
1.001382,18:03:30.325,5.499916,0.067566,-0.070984,0.942078,8.778625,16.496183,-0.061069
1.002176,18:03:30.326,5.499916,0.067566,-0.070984,0.942078,8.778625,16.496183,-0.061069
1.002971,18:03:30.327,5.499916,0.067566,-0.070984,0.942078,8.778625,16.496183,-0.061069
1.003765,18:03:30.327,1.018006,0.067566,-0.070984,0.942078,8.778625,16.496183,-0.061069
1.004559,18:03:30.328,0.497002,0.067566,-0.070984,0.942078,8.778625,16.496183,-0.061069
1.005353,18:03:30.329,0.124712,0.067566,-0.070984,0.942078,8.778625,16.496183,-0.061069
1.006147,18:03:30.330,-0.210986,0.067322,-0.065796,0.938538,8.374045,16.427481,0.297710
1.006941,18:03:30.330,-0.471489,0.067322,-0.065796,0.938538,8.374045,16.427481,0.297710
1.007735,18:03:30.331,-0.667536,0.067322,-0.065796,0.938538,8.374045,16.427481,0.297710
1.008529,18:03:30.332,-0.769589,0.067322,-0.065796,0.938538,8.374045,16.427481,0.297710
1.009324,18:03:30.333,-0.817426,0.067322,-0.065796,0.938538,8.374045,16.427481,0.297710
1.010118,18:03:30.334,-0.993164,0.067322,-0.065796,0.938538,8.374045,16.427481,0.297710
1.010912,18:03:30.334,-1.052918,0.067322,-0.065796,0.938538,8.374045,16.427481,0.297710
1.011706,18:03:30.335,-1.052918,0.067322,-0.065796,0.938538,8.374045,16.427481,0.297710
1.012500,18:03:30.336,-0.756664,0.069519,-0.067749,0.939636,7.320611,17.190840,0.419847
1.013294,18:03:30.337,-0.595026,0.069519,-0.067749,0.939636,7.320611,17.190840,0.419847
1.014088,18:03:30.338,-0.545342,0.069519,-0.067749,0.939636,7.320611,17.190840,0.419847
1.014882,18:03:30.338,-0.644709,0.069519,-0.067749,0.939636,7.320611,17.190840,0.419847
1.015676,18:03:30.339,-0.732662,0.069519,-0.067749,0.939636,7.320611,17.190840,0.419847
1.016471,18:03:30.340,-0.807691,0.069519,-0.067749,0.939636,7.320611,17.190840,0.419847
1.017265,18:03:30.341,-0.894469,0.069519,-0.067749,0.939636,7.320611,17.190840,0.419847
1.018059,18:03:30.342,-0.907561,0.069519,-0.067749,0.939636,7.320611,17.190840,0.419847
1.018853,18:03:30.342,-0.907561,0.069519,-0.067749,0.939636,7.320611,17.190840,0.419847
1.019647,18:03:30.343,-0.859220,0.068298,-0.070129,0.937134,5.519084,17.541985,0.793893
1.020441,18:03:30.344,-0.999878,0.068298,-0.070129,0.937134,5.519084,17.541985,0.793893
1.021235,18:03:30.345,-1.304356,0.068298,-0.070129,0.937134,5.519084,17.541985,0.793893
1.022029,18:03:30.346,-1.601114,0.068298,-0.070129,0.937134,5.519084,17.541985,0.793893
1.022824,18:03:30.346,-1.831739,0.068298,-0.070129,0.937134,5.519084,17.541985,0.793893
1.023618,18:03:30.347,-1.949065,0.068298,-0.070129,0.937134,5.519084,17.541985,0.793893
1.024412,18:03:30.348,-1.879744,0.068298,-0.070129,0.937134,5.519084,17.541985,0.793893
1.025206,18:03:30.349,-1.805554,0.068298,-0.070129,0.937134,5.519084,17.541985,0.793893
1.026000,18:03:30.350,-1.789441,0.067017,-0.068481,0.937744,3.221374,17.534351,0.992366
1.026794,18:03:30.350,-1.731029,0.067017,-0.068481,0.937744,3.221374,17.534351,0.992366
1.027588,18:03:30.351,-1.731029,0.067017,-0.068481,0.937744,3.221374,17.534351,0.992366
1.028382,18:03:30.352,-1.696117,0.067017,-0.068481,0.937744,3.221374,17.534351,0.992366
1.029176,18:03:30.353,-1.660197,0.067017,-0.068481,0.937744,3.221374,17.534351,0.992366
1.029971,18:03:30.354,-1.724315,0.067017,-0.068481,0.937744,3.221374,17.534351,0.992366
1.030765,18:03:30.354,-1.744457,0.067017,-0.068481,0.937744,3.221374,17.534351,0.992366
1.031559,18:03:30.355,-1.680003,0.067017,-0.068481,0.937744,3.221374,17.534351,0.992366
1.032353,18:03:30.356,-1.703838,0.067017,-0.068481,0.937744,3.221374,17.534351,0.992366
1.033147,18:03:30.357,-1.771984,0.070862,-0.073975,0.939209,1.427481,17.725191,1.076336
1.033941,18:03:30.357,-1.931106,0.070862,-0.073975,0.939209,1.427481,17.725191,1.076336
1.034735,18:03:30.358,-2.211078,0.070862,-0.073975,0.939209,1.427481,17.725191,1.076336
1.035529,18:03:30.359,-2.501122,0.070862,-0.073975,0.939209,1.427481,17.725191,1.076336
1.036324,18:03:30.360,-2.501122,0.070862,-0.073975,0.939209,1.427481,17.725191,1.076336
1.037118,18:03:30.361,-3.009033,0.070862,-0.073975,0.939209,1.427481,17.725191,1.076336
1.037912,18:03:30.361,-3.283635,0.070862,-0.073975,0.939209,1.427481,17.725191,1.076336
1.038706,18:03:30.362,-3.578546,0.070862,-0.073975,0.939209,1.427481,17.725191,1.076336
1.039500,18:03:30.363,-3.833341,0.070862,-0.073975,0.939209,1.427481,17.725191,1.076336
1.040294,18:03:30.364,-4.165850,0.070740,-0.082275,0.944397,0.229008,18.297710,1.190840
1.041088,18:03:30.365,-4.582620,0.070740,-0.082275,0.944397,0.229008,18.297710,1.190840
1.041882,18:03:30.365,-4.952560,0.070740,-0.082275,0.944397,0.229008,18.297710,1.190840
1.042676,18:03:30.366,-5.242603,0.070740,-0.082275,0.944397,0.229008,18.297710,1.190840
1.043471,18:03:30.367,-5.456947,0.070740,-0.082275,0.944397,0.229008,18.297710,1.190840
1.044265,18:03:30.368,-5.493874,0.070740,-0.082275,0.944397,0.229008,18.297710,1.190840
1.045059,18:03:30.369,-5.493874,0.070740,-0.082275,0.944397,0.229008,18.297710,1.190840
1.045853,18:03:30.369,-5.494713,0.070740,-0.082275,0.944397,0.229008,18.297710,1.190840
1.046647,18:03:30.370,-5.494881,0.068359,-0.085449,0.945007,0.145038,18.160305,1.145038
1.047441,18:03:30.371,-5.494881,0.068359,-0.085449,0.945007,0.145038,18.160305,1.145038
1.048235,18:03:30.372,-5.494881,0.068359,-0.085449,0.945007,0.145038,18.160305,1.145038
1.049029,18:03:30.373,-5.494881,0.068359,-0.085449,0.945007,0.145038,18.160305,1.145038
1.049824,18:03:30.373,-5.494881,0.068359,-0.085449,0.945007,0.145038,18.160305,1.145038
1.050618,18:03:30.374,-5.494881,0.068359,-0.085449,0.945007,0.145038,18.160305,1.145038
1.051412,18:03:30.375,-5.494881,0.068359,-0.085449,0.945007,0.145038,18.160305,1.145038
1.052206,18:03:30.376,-5.494881,0.068359,-0.085449,0.945007,0.145038,18.160305,1.145038
1.053000,18:03:30.377,-5.495048,0.071350,-0.087646,0.943176,0.954198,17.641222,1.206107
1.053794,18:03:30.377,-5.495216,0.071350,-0.087646,0.943176,0.954198,17.641222,1.206107
1.054588,18:03:30.378,-5.494881,0.071350,-0.087646,0.943176,0.954198,17.641222,1.206107
1.055382,18:03:30.379,-5.495048,0.071350,-0.087646,0.943176,0.954198,17.641222,1.206107
1.056176,18:03:30.380,-5.494881,0.071350,-0.087646,0.943176,0.954198,17.641222,1.206107
1.056971,18:03:30.381,-5.495048,0.071350,-0.087646,0.943176,0.954198,17.641222,1.206107
1.057765,18:03:30.381,-5.495048,0.071350,-0.087646,0.943176,0.954198,17.641222,1.206107
1.058559,18:03:30.382,-5.495216,0.071350,-0.087646,0.943176,0.954198,17.641222,1.206107
1.059353,18:03:30.383,-5.495384,0.071350,-0.087646,0.943176,0.954198,17.641222,1.206107
1.060147,18:03:30.384,-5.495216,0.072632,-0.091919,0.950989,2.000000,17.374046,1.236641
1.060941,18:03:30.384,-5.495216,0.072632,-0.091919,0.950989,2.000000,17.374046,1.236641
1.061735,18:03:30.385,-5.495216,0.072632,-0.091919,0.950989,2.000000,17.374046,1.236641
1.062529,18:03:30.386,-5.495048,0.072632,-0.091919,0.950989,2.000000,17.374046,1.236641
1.063324,18:03:30.387,-5.495216,0.072632,-0.091919,0.950989,2.000000,17.374046,1.236641
1.064118,18:03:30.388,-5.495048,0.072632,-0.091919,0.950989,2.000000,17.374046,1.236641
1.064912,18:03:30.388,-5.495216,0.072632,-0.091919,0.950989,2.000000,17.374046,1.236641
1.065706,18:03:30.389,-5.495048,0.072632,-0.091919,0.950989,2.000000,17.374046,1.236641
1.066500,18:03:30.390,-5.495216,0.073059,-0.091492,0.955444,4.160306,17.061069,1.206107
1.067294,18:03:30.391,-5.495216,0.073059,-0.091492,0.955444,4.160306,17.061069,1.206107
1.068088,18:03:30.392,-5.495048,0.073059,-0.091492,0.955444,4.160306,17.061069,1.206107
1.068882,18:03:30.392,-5.494881,0.073059,-0.091492,0.955444,4.160306,17.061069,1.206107
1.069676,18:03:30.393,-5.494881,0.073059,-0.091492,0.955444,4.160306,17.061069,1.206107
1.070471,18:03:30.394,-5.494881,0.073059,-0.091492,0.955444,4.160306,17.061069,1.206107
1.071265,18:03:30.395,-5.495048,0.073059,-0.091492,0.955444,4.160306,17.061069,1.206107
1.072059,18:03:30.396,-5.495048,0.073059,-0.091492,0.955444,4.160306,17.061069,1.206107
1.072853,18:03:30.396,-5.494881,0.073059,-0.091492,0.955444,4.160306,17.061069,1.206107
1.073647,18:03:30.397,-5.495216,0.074524,-0.089966,0.952332,6.541985,16.633587,0.908397
1.074441,18:03:30.398,-4.916304,0.074524,-0.089966,0.952332,6.541985,16.633587,0.908397
1.075235,18:03:30.399,-4.305165,0.074524,-0.089966,0.952332,6.541985,16.633587,0.908397
1.076029,18:03:30.400,-3.674556,0.074524,-0.089966,0.952332,6.541985,16.633587,0.908397
1.076824,18:03:30.400,-3.040589,0.074524,-0.089966,0.952332,6.541985,16.633587,0.908397
